id,batch_id,speed,latitude,longitude,accuracy,timestamp,log_interval,acc_x_corrected,acc_y_corrected,acc_z_corrected,rot_x_corrected,rot_y_corrected,rot_z_corrected,batch,acc_x_global,acc_y_global,acc_z_global
4143,0,0.036011,7.297506,5.132819,0.88,2025-06-27 13:04:18.786681,1,0.67,-0.55,10.01,-0.0,0.02,0.01,inference,0.666950291247346,-0.5457412170848037,10.0104367453663
4144,0,0.036011,7.297506,5.132819,0.88,2025-06-27 13:04:18.824077,2,0.65,-0.56,9.99,-0.0,0.02,0.01,inference,0.6440095967920062,-0.5513899629156513,9.990866866695589
4145,0,0.036011,7.297506,5.132819,0.88,2025-06-27 13:04:18.850930,3,0.66,-0.53,9.97,-0.0,0.02,0.01,inference,0.6509169772648131,-0.5172364333717138,9.9712673999197
4146,0,0.036011,7.297506,5.132819,0.88,2025-06-27 13:04:18.882927,4,0.66,-0.53,9.97,0.01,0.02,0.01,inference,0.6478118160397727,-0.5140729159614996,9.971633210666853
4147,0,0.036011,7.297506,5.132819,0.88,2025-06-27 13:04:18.912446,5,0.66,-0.56,10.0,-0.0,0.02,0.01,inference,0.6447873889308335,-0.5397139472619479,10.00210768179421
4148,0,0.036011,7.297506,5.132819,0.88,2025-06-27 13:04:18.935097,6,0.66,-0.54,10.0,-0.0,0.02,0.01,inference,0.6416917157748736,-0.5155045786302147,10.002484030045599
4149,0,0.036011,7.297506,5.132819,0.88,2025-06-27 13:04:18.965061,7,0.68,-0.53,10.01,-0.0,0.02,0.01,inference,0.6584707719865668,-0.5013880650006495,10.012912975289176
4150,0,0.036011,7.297506,5.132819,0.88,2025-06-27 13:04:18.997216,8,0.67,-0.57,10.0,-0.0,0.02,0.01,inference,0.6455095000984503,-0.5371239930987163,10.003430176760386
4151,0,0.036011,7.297506,5.132819,0.88,2025-06-27 13:04:19.023972,9,0.66,-0.55,10.01,-0.0,0.02,0.01,inference,0.6323996582870952,-0.5128614103069811,10.013752735414247
4152,0,0.036011,7.297506,5.132819,0.88,2025-06-27 13:04:19.051669,10,0.66,-0.54,9.98,-0.0,0.02,0.01,inference,0.6293677167512867,-0.49880244388825773,9.984122014432836
4153,0,0.036011,7.297506,5.132819,0.88,2025-06-27 13:04:19.075860,11,0.67,-0.54,9.98,-0.0,0.02,0.01,inference,0.6362222730166861,-0.49467082523632677,9.984559178750834
4154,0,0.036011,7.297506,5.132819,0.88,2025-06-27 13:04:19.099472,12,0.68,-0.54,9.97,0.01,0.02,0.01,inference,0.6430787041562732,-0.49163063588510825,9.974951082492582
4155,0,0.036011,7.297506,5.132819,0.88,2025-06-27 13:04:19.124895,13,0.67,-0.53,9.99,-0.0,0.02,0.01,inference,0.6297927467884818,-0.4774847577529333,9.995262347842914
4156,0,0.036011,7.297506,5.132819,0.88,2025-06-27 13:04:19.152183,14,0.66,-0.53,10.01,0.01,0.02,0.01,inference,0.6165313898440379,-0.47429399099845476,10.015564599933436
4157,0,0.036011,7.297506,5.132819,0.88,2025-06-27 13:04:19.184424,15,0.67,-0.52,9.99,0.01,0.02,0.01,inference,0.6233576225919948,-0.4613918113248105,9.995896301522885
4158,0,0.036011,7.297506,5.132819,0.88,2025-06-27 13:04:19.207993,16,0.66,-0.53,9.99,-0.0,0.02,0.01,inference,0.6101930149610199,-0.46731835877490707,9.996293214789405
4159,0,0.036011,7.297506,5.132819,0.88,2025-06-27 13:04:19.230553,17,0.65,-0.55,9.97,-0.0,0.02,0.01,inference,0.5972639245654531,-0.483239584215908,9.976755750676647
4160,0,0.036011,7.297506,5.132819,0.88,2025-06-27 13:04:19.257639,18,0.67,-0.53,9.99,-0.0,0.02,0.01,inference,0.6138967341228756,-0.45904485910984905,9.9971150147009
4161,0,0.036011,7.297506,5.132819,0.88,2025-06-27 13:04:19.285071,19,0.66,-0.55,10.01,-0.0,0.02,0.01,inference,0.6006958145431488,-0.47474584380828755,10.017583586982298
4162,0,0.036011,7.297506,5.132819,0.88,2025-06-27 13:04:19.312743,20,0.65,-0.56,10.0,0.01,0.02,0.01,inference,0.5877280248466131,-0.4815810746142378,10.0079346239563
4163,0,0.036011,7.297506,5.132819,0.88,2025-06-27 13:04:19.338082,21,0.67,-0.54,9.98,-0.0,0.02,0.01,inference,0.6046164020534031,-0.45763849801748824,9.988288442546116
4164,0,0.036011,7.297506,5.132819,0.88,2025-06-27 13:04:19.367606,22,0.65,-0.55,9.99,-0.0,0.02,0.01,inference,0.5814714791022648,-0.4634093637016101,9.99861203770925
4165,0,0.036011,7.297506,5.132819,0.88,2025-06-27 13:04:19.394224,23,0.64,-0.54,10.02,-0.0,0.02,0.01,inference,0.5681144100873825,-0.44899553948484333,10.028820918860491
4166,0,0.036011,7.297506,5.132819,0.88,2025-06-27 13:04:19.419084,24,0.66,-0.55,10.0,0.01,0.02,0.01,inference,0.5851330437627321,-0.45599437059227754,10.009385018825338
4167,0,0.036011,7.297506,5.132819,0.88,2025-06-27 13:04:19.444588,25,0.65,-0.54,10.0,0.01,0.02,0.01,inference,0.5719474136253464,-0.4429026198511512,10.0095361243854
4168,0,0.036011,7.297506,5.132819,0.88,2025-06-27 13:04:19.471887,26,0.65,-0.56,10.0,0.01,0.02,0.01,inference,0.5689206640322745,-0.4596776503648775,10.01005123542293
4169,0,0.036011,7.297506,5.132819,0.88,2025-06-27 13:04:19.500966,27,0.67,-0.51,10.0,-0.0,0.02,0.01,inference,0.5854220325809454,-0.4057843619587551,10.01007592855112
4170,0,0.036011,7.297506,5.132819,0.88,2025-06-27 13:04:19.531127,28,0.65,-0.53,10.0,-0.0,0.02,0.01,inference,0.562251956915635,-0.4217944786488632,10.010462634400364
4171,0,0.036011,7.297506,5.132819,0.88,2025-06-27 13:04:19.556409,29,0.66,-0.55,10.0,-0.0,0.02,0.01,inference,0.5691319917545842,-0.43765794740740177,10.01112602542954
4172,0,0.036011,7.297506,5.132819,0.88,2025-06-27 13:04:19.580195,30,0.68,-0.54,9.98,-0.0,0.02,0.01,inference,0.5860026870383683,-0.4238748542997922,9.99156298877589
4173,0,0.036011,7.297506,5.132819,0.88,2025-06-27 13:04:19.609656,31,0.68,-0.55,9.99,-0.0,0.02,0.01,inference,0.5826848951917174,-0.4297601660237437,10.002039017751065
4174,0,0.036011,7.297506,5.132819,0.88,2025-06-27 13:04:19.636435,32,0.67,-0.54,10.01,-0.0,0.02,0.01,inference,0.5691796844724255,-0.415574466822039,10.022172037503122
4175,0,0.036011,7.297506,5.132819,0.88,2025-06-27 13:04:19.662849,33,0.65,-0.54,9.96,-0.0,0.02,0.01,inference,0.5464930972184148,-0.41220689302152685,9.972318224567355
4176,0,0.036011,7.297506,5.132819,0.88,2025-06-27 13:04:19.693021,34,0.66,-0.55,10.01,0.01,0.02,0.01,inference,0.552787545486445,-0.4184769439846253,10.022849044902772
4177,0,0.036011,7.297506,5.132819,0.88,2025-06-27 13:04:19.718501,35,0.67,-0.54,9.96,0.01,0.02,0.01,inference,0.5600240856498861,-0.4061461385485208,9.973139843481297
4178,0,0.036011,7.297506,5.132819,0.88,2025-06-27 13:04:19.745210,36,0.68,-0.55,10.01,-0.0,0.02,0.01,inference,0.5662104272217872,-0.4114784624020873,10.023726414217645
4179,0,0.036011,7.297506,5.132819,0.88,2025-06-27 13:04:19.768173,37,0.66,-0.54,10.0,-0.0,0.02,0.01,inference,0.5430239816148413,-0.3977020036098544,10.01369852111176
4180,0,0.036011,7.297506,5.132819,0.88,2025-06-27 13:04:19.792322,38,0.64,-0.55,10.01,-0.0,0.02,0.01,inference,0.5197834492841386,-0.4034995790105794,10.023932025686754
4181,0,0.036011,7.297506,5.132819,0.88,2025-06-27 13:04:19.816608,39,0.65,-0.55,10.0,0.01,0.02,0.01,inference,0.5267080625791198,-0.4005308514548907,10.014347390311912
4182,0,0.036011,7.297506,5.132819,0.88,2025-06-27 13:04:19.842111,40,0.67,-0.53,10.0,0.01,0.02,0.01,inference,0.5432658511391513,-0.3776070503330612,10.014593108585334
4183,0,0.036011,7.297506,5.132819,0.88,2025-06-27 13:04:19.871930,41,0.66,-0.55,10.02,-0.0,0.02,0.01,inference,0.5298371749863237,-0.39331631923589944,10.035092169034883
4184,0,0.349822,7.297505,5.132809,0.88,2025-06-27 13:04:19.896255,42,0.66,-0.54,10.0,-0.0,0.02,0.01,inference,0.5267632509248712,-0.37967779212155395,10.015266609114546
4185,0,0.349822,7.297505,5.132809,0.88,2025-06-27 13:04:19.921490,43,0.67,-0.55,9.98,-0.0,0.02,0.01,inference,0.5337881137364346,-0.38600024678731193,9.995892859525549
4186,0,0.349822,7.297505,5.132809,0.88,2025-06-27 13:04:19.945803,44,0.67,-0.56,9.98,0.01,0.02,0.01,inference,0.5305898965332536,-0.3929942451466055,9.996345826599763
4187,0,0.349822,7.297505,5.132809,0.88,2025-06-27 13:04:19.968909,45,0.66,-0.53,9.99,-0.0,0.02,0.01,inference,0.5169592780932161,-0.35902923492697997,10.006020743195624
4188,0,0.349822,7.297505,5.132809,0.88,2025-06-27 13:04:19.995660,46,0.68,-0.53,10.01,-0.0,0.02,0.01,inference,0.5332216177691131,-0.35485151187618513,10.026622318151956
4189,0,0.349822,7.297505,5.132809,0.88,2025-06-27 13:04:20.018126,47,0.65,-0.53,9.97,-0.0,0.02,0.01,inference,0.5004859052209369,-0.3518056678052397,9.986493209869785
4190,0,0.349822,7.297505,5.132809,0.88,2025-06-27 13:04:20.038931,48,0.65,-0.55,10.02,-0.0,0.02,0.01,inference,0.49655642644640585,-0.36690556724684065,10.037141625984864
4191,0,0.349822,7.297505,5.132809,0.88,2025-06-27 13:04:20.062104,49,0.66,-0.53,10.01,-0.0,0.02,0.01,inference,0.5032171406440822,-0.34322751160773446,10.027241264906195
4192,0,0.349822,7.297505,5.132809,0.88,2025-06-27 13:04:20.086214,50,0.65,-0.54,9.99,-0.0,0.02,0.01,inference,0.49026901183016636,-0.3497234173259318,10.007573623382092
4193,0,0.349822,7.297505,5.132809,0.88,2025-06-27 13:04:20.107142,51,0.67,-0.54,10.01,-0.0,0.02,0.01,inference,0.5065398092470982,-0.34543454135419605,10.02819487242282
4194,0,0.349822,7.297505,5.132809,0.88,2025-06-27 13:04:20.131621,52,0.66,-0.54,10.0,0.01,0.02,0.01,inference,0.49334287305427027,-0.3428281782570991,10.018297342852202
4195,0,0.349822,7.297505,5.132809,0.88,2025-06-27 13:04:20.156348,53,0.64,-0.54,10.02,0.01,0.02,0.01,inference,0.46970867428897844,-0.3395923878405246,10.038209540123104
4196,0,0.349822,7.297505,5.132809,0.88,2025-06-27 13:04:20.180496,54,0.66,-0.55,10.0,-0.0,0.02,0.01,inference,0.4867772905054934,-0.345960845723137,10.019054793875252
4197,0,0.349822,7.297505,5.132809,0.88,2025-06-27 13:04:20.199767,55,0.66,-0.54,9.97,0.01,0.02,0.01,inference,0.4838868094245593,-0.3337418087560964,9.98912258212668
4198,0,0.349822,7.297505,5.132809,0.88,2025-06-27 13:04:20.222076,56,0.67,-0.55,9.98,-0.0,0.02,0.01,inference,0.4903944766484926,-0.33963769332367566,9.999797972686572
4199,0,0.349822,7.297505,5.132809,0.88,2025-06-27 13:04:20.243888,57,0.67,-0.56,10.01,-0.0,0.02,0.01,inference,0.4865691472549072,-0.34509946086373333,10.030291961206872
4200,0,0.349822,7.297505,5.132809,0.88,2025-06-27 13:04:20.264541,58,0.66,-0.55,10.01,-0.0,0.02,0.01,inference,0.47316311264485955,-0.3312777862209729,10.030183034082118
4201,0,0.349822,7.297505,5.132809,0.88,2025-06-27 13:04:20.285365,59,0.63,-0.55,9.97,0.01,0.02,0.01,inference,0.44070800137522215,-0.3292884769921858,9.98987715422187
4202,0,0.349822,7.297505,5.132809,0.88,2025-06-27 13:04:20.306116,60,0.65,-0.55,10.02,-0.0,0.02,0.01,inference,0.4564086914128341,-0.3241594271907102,10.040518501161493
4203,0,0.349822,7.297505,5.132809,0.88,2025-06-27 13:04:20.326500,61,0.66,-0.54,9.98,-0.0,0.02,0.01,inference,0.46371610633386184,-0.311222392959374,10.000785368902147
4204,0,0.349822,7.297505,5.132809,0.88,2025-06-27 13:04:20.347177,62,0.66,-0.53,9.96,-0.0,0.02,0.01,inference,0.4605841239406375,-0.29801083791740046,9.980839233514265
4205,0,0.349822,7.297505,5.132809,0.88,2025-06-27 13:04:20.368493,63,0.66,-0.54,9.97,0.01,0.02,0.01,inference,0.4570161579019969,-0.3050387812714628,9.99130559903644
4206,0,0.349822,7.297505,5.132809,0.88,2025-06-27 13:04:20.392029,64,0.68,-0.54,9.99,0.01,0.02,0.01,inference,0.47309300117523045,-0.30181484703939265,10.011952397526949
4207,0,0.349822,7.297505,5.132809,0.88,2025-06-27 13:04:20.413289,65,0.66,-0.53,10.01,-0.0,0.02,0.01,inference,0.4491102559975072,-0.28782106749279174,10.031553170425067
4208,0,0.349822,7.297505,5.132809,0.88,2025-06-27 13:04:20.436895,66,0.67,-0.54,9.99,-0.0,0.02,0.01,inference,0.4561094492020182,-0.29455443488680044,10.012282549710488
4209,0,0.349822,7.297505,5.132809,0.88,2025-06-27 13:04:20.457323,67,0.66,-0.53,9.96,-0.0,0.02,0.01,inference,0.4431995126883248,-0.28172656577277977,9.98209919476313
4210,0,0.349822,7.297505,5.132809,0.88,2025-06-27 13:04:20.483700,68,0.67,-0.55,9.97,0.01,0.02,0.01,inference,0.44967129433933795,-0.29867698050942243,9.993041968708077
4211,0,0.349822,7.297505,5.132809,0.88,2025-06-27 13:04:20.505291,69,0.66,-0.55,9.97,0.01,0.02,0.01,inference,0.43628016361162014,-0.2959627624725587,9.993050868582062
4212,0,0.349822,7.297505,5.132809,0.88,2025-06-27 13:04:20.531085,70,0.68,-0.55,10.01,-0.0,0.02,0.01,inference,0.45186663291427204,-0.29114664862913936,10.033745570575864
4213,0,0.349822,7.297505,5.132809,0.88,2025-06-27 13:04:20.553695,71,0.65,-0.54,10.02,-0.0,0.02,0.01,inference,0.41812684323296634,-0.2773587833849704,10.04304446113066
4214,0,0.349822,7.297505,5.132809,0.88,2025-06-27 13:04:20.583502,72,0.65,-0.55,10.0,0.01,0.02,0.01,inference,0.41527939767733896,-0.2850484373803501,10.023536821412478
4215,0,0.349822,7.297505,5.132809,0.88,2025-06-27 13:04:20.612477,73,0.65,-0.55,9.99,-0.0,0.02,0.01,inference,0.41212742024504123,-0.28149320050235743,10.013791118630001
4216,0,0.349822,7.297505,5.132809,0.88,2025-06-27 13:04:20.636828,74,0.65,-0.55,10.01,-0.0,0.02,0.01,inference,0.40823664045013514,-0.27715802360860575,10.034023434063894
4217,0,0.349822,7.297505,5.132809,0.88,2025-06-27 13:04:20.661946,75,0.68,-0.55,10.01,0.01,0.02,0.01,inference,0.4346989359187375,-0.2743185651011759,10.03497813450293
4218,0,0.349822,7.297505,5.132809,0.88,2025-06-27 13:04:20.683987,76,0.64,-0.53,9.99,0.01,0.02,0.01,inference,0.39158339909707046,-0.25251249804165904,10.01366565648586
4219,0,0.349822,7.297505,5.132809,0.88,2025-06-27 13:04:20.706599,77,0.66,-0.57,10.01,-0.0,0.02,0.01,inference,0.40801667810823217,-0.2878887730523082,10.035499112886015
4220,0,0.349822,7.297505,5.132809,0.88,2025-06-27 13:04:20.732862,78,0.63,-0.56,9.99,0.01,0.02,0.01,inference,0.3752127577016849,-0.27568939314522967,10.014679762476938
4221,0,0.349822,7.297505,5.132809,0.88,2025-06-27 13:04:20.757013,79,0.66,-0.55,9.95,0.01,0.02,0.01,inference,0.4027205011698553,-0.2638803389711797,9.975408932201324
4222,0,0.349822,7.297505,5.132809,0.88,2025-06-27 13:04:20.783599,80,0.65,-0.56,9.98,0.01,0.02,0.01,inference,0.38865861426704473,-0.27025992341065846,10.005618624320745
4223,0,0.349822,7.297505,5.132809,0.88,2025-06-27 13:04:20.807642,81,0.65,-0.54,9.98,0.01,0.02,0.01,inference,0.38502420858033515,-0.2476165545559123,10.005245744144267
4224,0,0.349822,7.297505,5.132809,0.88,2025-06-27 13:04:20.827542,82,0.65,-0.55,10.0,-0.0,0.02,0.01,inference,0.3811203867644166,-0.25328511029791545,10.025746550940429
4225,0,0.349822,7.297505,5.132809,0.88,2025-06-27 13:04:20.851634,83,0.65,-0.53,10.01,-0.0,0.02,0.01,inference,0.37710832186591947,-0.22947009864771356,10.035369090741312
4226,0,0.349822,7.297505,5.132809,0.88,2025-06-27 13:04:20.899126,84,0.65,-0.54,9.98,-0.0,0.02,0.01,inference,0.3744977158718994,-0.23672999137830347,10.005908772919566
4227,0,0.349822,7.297505,5.132809,0.88,2025-06-27 13:04:20.925724,85,0.66,-0.52,10.0,0.01,0.02,0.01,inference,0.38008066966867776,-0.21373584418319258,10.025759605808206
4228,0,0.349822,7.297505,5.132809,0.88,2025-06-27 13:04:20.948335,86,0.66,-0.53,9.98,-0.0,0.02,0.01,inference,0.3770921875653246,-0.2209020341587945,10.00629320844546
4229,0,0.349822,7.297505,5.132809,0.88,2025-06-27 13:04:20.973055,87,0.66,-0.52,10.0,0.01,0.02,0.01,inference,0.3727298229629189,-0.20799634930704214,10.02615629230609
4230,0,0.349822,7.297505,5.132809,0.88,2025-06-27 13:04:21.000592,88,0.67,-0.55,10.01,0.01,0.02,0.01,inference,0.3791193223742866,-0.23501628253168,10.037556270644139
4231,0,0.349822,7.297505,5.132809,0.88,2025-06-27 13:04:21.024228,89,0.65,-0.54,10.02,0.01,0.02,0.01,inference,0.35520973175546516,-0.222297784590949,10.046835807428733
4232,0,0.349822,7.297505,5.132809,0.88,2025-06-27 13:04:21.048858,90,0.66,-0.56,9.97,-0.0,0.02,0.01,inference,0.3634207332284216,-0.24002205722518027,9.9980205432228
4233,0,0.349822,7.297505,5.132809,0.88,2025-06-27 13:04:21.079266,91,0.64,-0.54,9.99,-0.0,0.02,0.01,inference,0.339155017934232,-0.21594515017233656,10.016967683182727
4234,0,0.349822,7.297505,5.132809,0.88,2025-06-27 13:04:21.108158,92,0.65,-0.56,10.0,-0.0,0.02,0.01,inference,0.34558843914702,-0.23174453430974784,10.028108650266287
4235,0,0.349822,7.297505,5.132809,0.88,2025-06-27 13:04:21.139495,93,0.66,-0.52,10.01,-0.0,0.02,0.01,inference,0.3511686503951057,-0.18812954684989064,10.03729982876778
4236,0,0.349822,7.297505,5.132809,0.88,2025-06-27 13:04:21.167256,94,0.67,-0.52,9.97,-0.0,0.02,0.01,inference,0.35861906442080005,-0.18619992327578322,9.997845865745585
4237,0,0.349822,7.297505,5.132809,0.88,2025-06-27 13:04:21.205162,95,0.66,-0.54,10.0,0.01,0.02,0.01,inference,0.3442188732958664,-0.20285935762002655,10.028337920527655
4238,0,0.895133,7.297506,5.13279,0.88,2025-06-27 13:04:21.235253,96,0.66,-0.54,10.01,-0.0,0.02,0.01,inference,0.340253903052619,-0.19908880114140204,10.038520355645925
4239,0,0.895133,7.297506,5.13279,0.88,2025-06-27 13:04:21.262456,97,0.66,-0.54,9.99,-0.0,0.02,0.01,inference,0.33725659028871335,-0.1963352698401311,10.018732976485783
4240,0,0.895133,7.297506,5.13279,0.88,2025-06-27 13:04:21.291950,98,0.66,-0.54,9.97,-0.0,0.02,0.01,inference,0.33426673996812023,-0.19360746256074868,9.998944039096923
4241,0,0.895133,7.297506,5.13279,0.88,2025-06-27 13:04:21.318113,99,0.67,-0.55,9.99,0.01,0.02,0.01,inference,0.3400645673347035,-0.20038007493220045,10.019765661711538
4242,0,0.895133,7.297506,5.13279,0.88,2025-06-27 13:04:21.347464,100,0.66,-0.53,10.0,-0.0,0.02,0.01,inference,0.3258098545875558,-0.17689777006336216,10.028910963688942
4243,0,0.895133,7.297506,5.13279,0.88,2025-06-27 13:04:30.800975,101,0.66,-0.51,10.0,-0.0,0.02,0.01,inference,0.3217258164921693,-0.15395844298628525,10.028384181753095
4244,0,0.895133,7.297506,5.13279,0.88,2025-06-27 13:04:30.829818,102,0.66,-0.53,9.99,-0.0,0.02,0.01,inference,0.31849460990715084,-0.17106928963883217,10.019276245398293
4245,0,0.895133,7.297506,5.13279,0.88,2025-06-27 13:04:30.858699,103,0.65,-0.56,9.99,-0.0,0.02,0.01,inference,0.3052993646530268,-0.19746623671523028,10.020179608335368
4246,0,0.895133,7.297506,5.13279,0.88,2025-06-27 13:04:30.885607,104,0.66,-0.54,9.99,-0.0,0.02,0.01,inference,0.31140514929248964,-0.1740516750076901,10.019981678996285
4247,0,0.895133,7.297506,5.13279,0.88,2025-06-27 13:04:30.915291,105,0.66,-0.54,9.98,-0.0,0.02,0.01,inference,0.30805233143864696,-0.17110594002157598,10.010166158380418
4248,0,0.895133,7.297506,5.13279,0.88,2025-06-27 13:04:30.946421,106,0.67,-0.55,10.0,-0.0,0.02,0.01,inference,0.31373313214899323,-0.17691759818078878,10.031035424383964
4249,0,0.895133,7.297506,5.13279,0.88,2025-06-27 13:04:30.976381,107,0.66,-0.54,10.03,-0.0,0.02,0.01,inference,0.2988095090689122,-0.16266491004133438,10.060435030570558
4250,0,0.895133,7.297506,5.13279,0.88,2025-06-27 13:04:31.007429,108,0.66,-0.51,10.02,-0.0,0.02,0.01,inference,0.29489127030341883,-0.1302780141122844,10.049485896190802
4251,0,0.895133,7.297506,5.13279,0.88,2025-06-27 13:04:31.037588,109,0.65,-0.52,10.0,-0.0,0.02,0.01,inference,0.2818599066939348,-0.1381133625038768,10.029674954458711
4252,0,0.895133,7.297506,5.13279,0.88,2025-06-27 13:04:31.064638,110,0.65,-0.54,10.01,0.01,0.02,0.01,inference,0.27797844875128913,-0.15540992537249437,10.040556545188396
4253,0,0.895133,7.297506,5.13279,0.88,2025-06-27 13:04:31.088775,111,0.64,-0.53,9.99,-0.0,0.02,0.01,inference,0.2648936649330914,-0.1430428047875425,10.019978547994842
4254,0,0.895133,7.297506,5.13279,0.88,2025-06-27 13:04:31.112917,112,0.65,-0.54,10.0,-0.0,0.02,0.01,inference,0.27088197257158886,-0.14924784371619876,10.030874739427356
4255,0,0.895133,7.297506,5.13279,0.88,2025-06-27 13:04:31.136365,113,0.67,-0.55,10.0,-0.0,0.02,0.01,inference,0.28722175644837816,-0.155754171420032,10.0321804360123
4256,0,0.895133,7.297506,5.13279,0.88,2025-06-27 13:04:31.164002,114,0.68,-0.54,9.96,0.01,0.02,0.01,inference,0.29481747074174053,-0.1451902664947276,9.99237721693195
4257,0,0.895133,7.297506,5.13279,0.88,2025-06-27 13:04:31.187279,115,0.66,-0.56,10.01,-0.0,0.02,0.01,inference,0.26946069696872976,-0.15998368990963757,10.042464645282653
4258,0,0.895133,7.297506,5.13279,0.88,2025-06-27 13:04:31.211757,116,0.65,-0.55,9.98,-0.0,0.02,0.01,inference,0.2569001501598644,-0.14788714089644683,10.011869541020067
4259,0,0.895133,7.297506,5.13279,0.88,2025-06-27 13:04:31.236509,117,0.66,-0.55,10.0,-0.0,0.02,0.01,inference,0.26236387864122623,-0.14369704141140605,10.032378399735226
4260,0,0.895133,7.297506,5.13279,0.88,2025-06-27 13:04:31.258032,118,0.65,-0.53,10.02,-0.0,0.02,0.01,inference,0.24746900845298703,-0.12004195327492867,10.05127598960994
4261,0,0.895133,7.297506,5.13279,0.88,2025-06-27 13:04:31.283256,119,0.67,-0.54,9.99,0.01,0.02,0.01,inference,0.26490616087731544,-0.1290138264127954,10.022663326607534
4262,0,0.895133,7.297506,5.13279,0.88,2025-06-27 13:04:31.312293,120,0.66,-0.54,10.0,-0.0,0.02,0.01,inference,0.25066174330280544,-0.12566357418503488,10.032376456082947
4263,0,0.895133,7.297506,5.13279,0.88,2025-06-27 13:04:31.337987,121,0.67,-0.55,9.98,-0.0,0.02,0.01,inference,0.25779022626772835,-0.13320649087646208,10.013371072222844
4264,0,0.895133,7.297506,5.13279,0.88,2025-06-27 13:04:31.359390,122,0.64,-0.55,9.99,0.01,0.02,0.01,inference,0.22376988600082565,-0.1307492913360348,10.022226881334026
4265,0,0.895133,7.297506,5.13279,0.88,2025-06-27 13:04:31.381513,123,0.68,-0.54,9.98,-0.0,0.02,0.01,inference,0.2600972759691297,-0.11783815308769863,10.013633884694926
4266,0,0.895133,7.297506,5.13279,0.88,2025-06-27 13:04:31.404341,124,0.66,-0.56,9.96,-0.0,0.02,0.01,inference,0.23753028974121476,-0.13552734560846524,9.993798662172846
4267,0,0.895133,7.297506,5.13279,0.88,2025-06-27 13:04:31.423827,125,0.68,-0.53,10.0,0.01,0.02,0.01,inference,0.25140624360383235,-0.10206006201049245,10.033428060459666
4268,0,0.895133,7.297506,5.13279,0.88,2025-06-27 13:04:31.463580,126,0.67,-0.53,10.01,-0.0,0.02,0.01,inference,0.23694389857548204,-0.0991075688957509,10.04310386676925
4269,0,0.895133,7.297506,5.13279,0.88,2025-06-27 13:04:31.489283,127,0.66,-0.53,10.0,0.01,0.02,0.01,inference,0.22340637449393452,-0.09791911705712542,10.032796292078809
4270,0,0.895133,7.297506,5.13279,0.88,2025-06-27 13:04:31.516379,128,0.66,-0.52,9.99,0.01,0.02,0.01,inference,0.21966031606499614,-0.08683955539298904,10.022490121579835
4271,0,0.895133,7.297506,5.13279,0.88,2025-06-27 13:04:31.543620,129,0.65,-0.55,10.0,0.01,0.02,0.01,inference,0.20585655618827592,-0.11421988329387517,10.033422990013658
4272,0,0.895133,7.297506,5.13279,0.88,2025-06-27 13:04:31.575493,130,0.67,-0.56,10.0,0.01,0.02,0.01,inference,0.2222248787897172,-0.12167854355274549,10.03485477898339
4273,0,0.895133,7.297506,5.13279,0.88,2025-06-27 13:04:31.641312,131,0.65,-0.55,10.0,-0.0,0.02,0.01,inference,0.19840814046473698,-0.10866640764262042,10.033634726341566
4274,0,0.895133,7.297506,5.13279,0.88,2025-06-27 13:04:31.697223,132,0.64,-0.56,10.0,-0.0,0.02,0.01,inference,0.18500061850228122,-0.11518140414957051,10.033728520111152
4275,0,0.895133,7.297506,5.13279,0.88,2025-06-27 13:04:31.725877,133,0.65,-0.54,9.96,-0.0,0.02,0.01,inference,0.19274372175959448,-0.09381362790992587,9.993485320994907
4276,0,0.895133,7.297506,5.13279,0.88,2025-06-27 13:04:31.748603,134,0.67,-0.53,10.0,-0.0,0.02,0.01,inference,0.20663904349953255,-0.07931595055929958,10.03398272301126
4277,0,0.895133,7.297506,5.13279,0.88,2025-06-27 13:04:31.773734,135,0.66,-0.53,9.99,0.01,0.02,0.01,inference,0.1930676041426398,-0.07832616163582135,10.023631573069416
4278,0,0.895133,7.297506,5.13279,0.88,2025-06-27 13:04:31.800414,136,0.68,-0.55,10.0,-0.0,0.02,0.01,inference,0.20885541501672283,-0.09473896310381269,10.035551999989249
4279,0,0.895133,7.297506,5.13279,0.88,2025-06-27 13:04:31.821916,137,0.65,-0.54,10.01,-0.0,0.02,0.01,inference,0.17437946663096326,-0.08179681966243713,10.043759310233924
4280,0,0.895133,7.297506,5.13279,0.88,2025-06-27 13:04:31.851277,138,0.67,-0.54,9.98,-0.0,0.02,0.01,inference,0.1917747647064949,-0.08019850251379973,10.014873470983861
4281,0,0.895133,7.297506,5.13279,0.88,2025-06-27 13:04:31.871860,139,0.65,-0.52,9.99,-0.0,0.02,0.01,inference,0.16689756954766366,-0.05777894976039971,10.023063742900357
4282,0,0.895133,7.297506,5.13279,0.88,2025-06-27 13:04:31.892932,140,0.66,-0.55,10.01,0.01,0.02,0.01,inference,0.17240672353418712,-0.0846898538358905,10.04496408905166
4283,0,0.895133,7.297506,5.13279,0.88,2025-06-27 13:04:31.921015,141,0.66,-0.56,10.01,-0.0,0.02,0.01,inference,0.16878910652626633,-0.09140625957623477,10.045519156978814
4284,0,0.895133,7.297506,5.13279,0.88,2025-06-27 13:04:31.949885,142,0.63,-0.55,10.01,0.01,0.02,0.01,inference,0.1350844380019539,-0.07940678655132632,10.043652062714004
4285,0,0.895133,7.297506,5.13279,0.88,2025-06-27 13:04:31.980334,143,0.66,-0.56,9.99,-0.0,0.02,0.01,inference,0.16241770583613813,-0.08664671374532545,10.025737520792577
4286,0,0.895133,7.297506,5.13279,0.88,2025-06-27 13:04:32.006738,144,0.64,-0.55,9.99,-0.0,0.02,0.01,inference,0.13856978513376528,-0.07372497709477532,10.024348509623973
4287,0,0.895133,7.297506,5.13279,0.88,2025-06-27 13:04:32.032018,145,0.65,-0.54,10.02,-0.0,0.02,0.01,inference,0.14287086977468566,-0.05951845996730676,10.054379417323226
4288,0,0.895133,7.297506,5.13279,0.88,2025-06-27 13:04:32.054747,146,0.64,-0.53,9.99,0.01,0.02,0.01,inference,0.13019424707059657,-0.04965207170122038,10.023531519868907
4289,0,0.895133,7.297506,5.13279,0.88,2025-06-27 13:04:32.081220,147,0.64,-0.54,10.01,-0.0,0.02,0.01,inference,0.12532404336179814,-0.05587576720909759,10.044026671748451
4290,0,0.895133,7.297506,5.13279,0.88,2025-06-27 13:04:32.104939,148,0.66,-0.55,9.98,-0.0,0.02,0.01,inference,0.1430345053405888,-0.0641552522847253,10.015683962360548
4291,0,0.529878,7.297505,5.132792,0.88,2025-06-27 13:04:32.129886,149,0.64,-0.54,10.0,-0.0,0.02,0.01,inference,0.11789493132665685,-0.05077485351804584,10.034177729112523
4292,0,0.529878,7.297505,5.132792,0.88,2025-06-27 13:04:32.152247,150,0.65,-0.53,10.0,-0.0,0.02,0.01,inference,0.12351029993516527,-0.038541028099177255,10.034274253525414
4293,0,0.529878,7.297505,5.132792,0.88,2025-06-27 13:04:32.179753,151,0.67,-0.52,9.97,0.01,0.02,0.01,inference,0.14055678248813652,-0.029271258811857714,10.004978110136182
4294,0,0.529878,7.297505,5.132792,0.88,2025-06-27 13:04:32.205882,152,0.66,-0.54,9.99,0.01,0.02,0.01,inference,0.12564336513170793,-0.04703905733757047,10.025432712451028
4295,0,0.529878,7.297505,5.132792,0.88,2025-06-27 13:04:32.234828,153,0.68,-0.55,10.03,0.01,0.02,0.01,inference,0.1394658530693662,-0.05333157975493308,10.066951128242776
4296,0,0.529878,7.297505,5.132792,0.88,2025-06-27 13:04:32.261927,154,0.67,-0.53,10.0,-0.0,0.02,0.01,inference,0.12652556500469314,-0.033167499647232646,10.03557129407028
4297,0,0.529878,7.297505,5.132792,0.88,2025-06-27 13:04:32.286124,155,0.67,-0.55,9.99,-0.0,0.02,0.01,inference,0.12331026759060237,-0.05097198368290512,10.026649312446617
4298,0,0.529878,7.297505,5.132792,0.88,2025-06-27 13:04:32.310910,156,0.67,-0.55,9.98,-0.0,0.02,0.01,inference,0.11982761204528092,-0.04883701037162569,10.01673880511065
4299,0,0.529878,7.297505,5.132792,0.88,2025-06-27 13:04:32.338761,157,0.64,-0.53,9.98,0.01,0.02,0.01,inference,0.08541252285521805,-0.028201970913316055,10.014130483959958
4300,0,0.529878,7.297505,5.132792,0.88,2025-06-27 13:04:32.365120,158,0.65,-0.54,10.02,0.01,0.02,0.01,inference,0.08918534389768185,-0.03458494039262666,10.05511560631363
4301,0,0.529878,7.297505,5.132792,0.88,2025-06-27 13:04:32.389880,159,0.66,-0.54,10.01,-0.0,0.02,0.01,inference,0.09555071864230502,-0.032637517676353534,10.045750586820624
4302,0,0.529878,7.297505,5.132792,0.88,2025-06-27 13:04:32.415546,160,0.65,-0.55,9.99,-0.0,0.02,0.01,inference,0.08300622696532722,-0.040715659380123836,10.02579434266264
4303,0,0.529878,7.297505,5.132792,0.88,2025-06-27 13:04:32.438684,161,0.67,-0.52,10.01,0.01,0.02,0.01,inference,0.0969008445324202,-0.009726778819017734,10.045392755691672
4304,0,0.529878,7.297505,5.132792,0.88,2025-06-27 13:04:32.468644,162,0.65,-0.53,10.02,0.01,0.02,0.01,inference,0.07215663374871739,-0.018818038335390308,10.05476202113403
4305,0,0.529878,7.297505,5.132792,0.88,2025-06-27 13:04:32.501610,163,0.64,-0.52,9.98,0.01,0.02,0.01,inference,0.05993539057499364,-0.010790503071823554,10.013825009156097
4306,0,0.529878,7.297505,5.132792,0.88,2025-06-27 13:04:32.530879,164,0.66,-0.54,9.99,0.01,0.02,0.01,inference,0.07548252938199329,-0.02851284323907599,10.026005655570344
4307,0,0.529878,7.297505,5.132792,0.88,2025-06-27 13:04:32.558137,165,0.65,-0.54,9.98,0.01,0.02,0.01,inference,0.06213205037601188,-0.027425496416397688,10.015482387307284
4308,0,0.529878,7.297505,5.132792,0.88,2025-06-27 13:04:32.584642,166,0.67,-0.55,10.04,-0.0,0.02,0.01,inference,0.07464176760473962,-0.031331137341040205,10.077025700392044
4309,0,0.529878,7.297505,5.132792,0.88,2025-06-27 13:04:32.611779,167,0.65,-0.55,10.01,-0.0,0.02,0.01,inference,0.05283828296412518,-0.029743540367724197,10.045965530383816
4310,0,0.529878,7.297505,5.132792,0.88,2025-06-27 13:04:32.639593,168,0.66,-0.54,9.97,-0.0,0.02,0.01,inference,0.06089073316548088,-0.019447280027960034,10.006198784849024
4311,0,0.529878,7.297505,5.132792,0.88,2025-06-27 13:04:32.666811,169,0.67,-0.54,10.0,0.01,0.02,0.01,inference,0.06472465985488995,-0.017006233363991652,10.036733607425946
4312,0,0.529878,7.297505,5.132792,0.88,2025-06-27 13:04:32.692666,170,0.67,-0.54,9.98,-0.0,0.02,0.01,inference,0.06164070956402845,-0.01619324514801268,10.016827751425899
4313,0,0.529878,7.297505,5.132792,0.88,2025-06-27 13:04:32.717120,171,0.66,-0.54,10.04,0.01,0.02,0.01,inference,0.043656121050065444,-0.012432860795885792,10.076047814846222
4314,0,0.529878,7.297505,5.132792,0.88,2025-06-27 13:04:32.745402,172,0.66,-0.53,9.98,0.01,0.02,0.01,inference,0.042753228873356974,-0.005664205152663748,10.015739617132672
4315,0,0.529878,7.297505,5.132792,0.88,2025-06-27 13:04:32.772756,173,0.65,-0.55,9.96,0.01,0.02,0.01,inference,0.03120027093626243,-0.023689061600770334,9.996252566409776
4316,0,0.529878,7.297505,5.132792,0.88,2025-06-27 13:04:32.800111,174,0.67,-0.55,9.99,-0.0,0.02,0.01,inference,0.04529655605501348,-0.019021198407273232,10.027416736927849
4317,0,0.529878,7.297505,5.132792,0.88,2025-06-27 13:04:32.824215,175,0.67,-0.55,9.97,-0.0,0.02,0.01,inference,0.0425652680062083,-0.017356963235580114,10.007506529290241
4318,0,0.529878,7.297505,5.132792,0.88,2025-06-27 13:04:32.849425,176,0.66,-0.54,9.96,-0.0,0.02,0.01,inference,0.02873312062969191,-0.006417661437582156,9.99639601163342
4319,0,0.529878,7.297505,5.132792,0.88,2025-06-27 13:04:32.872626,177,0.63,-0.55,9.99,-0.0,0.02,0.01,inference,0.0003357506264444199,-0.008792014167613882,10.024940029135259
4320,0,0.529878,7.297505,5.132792,0.88,2025-06-27 13:04:32.898343,178,0.67,-0.54,9.98,-0.0,0.02,0.01,inference,0.03619733869412334,0.0012635706124374257,10.01696501721259
4321,0,0.529878,7.297505,5.132792,0.88,2025-06-27 13:04:32.925730,179,0.64,-0.55,9.99,0.01,0.02,0.01,inference,0.004210127439077116,-0.004141852974643201,10.025575550554738
4322,0,0.529878,7.297505,5.132792,0.88,2025-06-27 13:04:32.949378,180,0.66,-0.52,9.99,-0.0,0.02,0.01,inference,0.021327701162462187,0.0213720228591745,10.025227596708318
4323,0,0.529878,7.297505,5.132792,0.88,2025-06-27 13:04:32.974718,181,0.68,-0.53,10.0,0.01,0.02,0.01,inference,0.03652750690071449,0.00947522703966519,10.037025254591732
4324,0,0.529878,7.297505,5.132792,0.88,2025-06-27 13:04:32.999177,182,0.65,-0.54,10.01,0.01,0.02,0.01,inference,0.0015850680347347934,-0.0008625777849982086,10.04560584253229
4325,0,0.529878,7.297505,5.132792,0.88,2025-06-27 13:04:33.025432,183,0.66,-0.54,9.98,0.01,0.02,0.01,inference,0.009094219644100066,-0.0020719033705254297,10.016362263935221
4326,0,0.529878,7.297505,5.132792,0.88,2025-06-27 13:04:33.053618,184,0.65,-0.55,10.01,0.01,0.02,0.01,inference,0.0010014829166824502,-0.005149371328125318,10.046147146095706
4327,0,0.529878,7.297505,5.132792,0.88,2025-06-27 13:04:33.080839,185,0.65,-0.53,10.0,-0.0,0.02,0.01,inference,0.0027832517380810273,0.007797740161780808,10.035104954546224
4328,0,0.529878,7.297505,5.132792,0.88,2025-06-27 13:04:33.102854,186,0.64,-0.55,10.0,-0.0,0.02,0.01,inference,-0.0016043596012662587,-0.00647829147778467,10.035539619660211
4329,0,0.529878,7.297505,5.132792,0.88,2025-06-27 13:04:33.131263,187,0.66,-0.56,10.01,-0.0,0.02,0.01,inference,0.014935683051352289,-0.011113222451100024,10.04733563795191
4330,0,0.452711,7.297505,5.132789,0.88,2025-06-27 13:04:33.155586,188,0.67,-0.56,10.01,-0.0,0.02,0.01,inference,0.020920441312051175,-0.008168592295817123,10.047989630231276
4331,0,0.452711,7.297505,5.132789,0.88,2025-06-27 13:04:33.182751,189,0.66,-0.54,9.98,0.01,0.02,0.01,inference,0.0094899870491566,0.004984191779623504,10.016360870993921
4332,0,0.452711,7.297505,5.132789,0.88,2025-06-27 13:04:33.209203,190,0.66,-0.55,10.0,-0.0,0.02,0.01,inference,0.004418889479700261,-0.0010168318877287197,10.036836126960962
4333,0,0.452711,7.297505,5.132789,0.88,2025-06-27 13:04:33.235271,191,0.65,-0.53,10.0,-0.0,0.02,0.01,inference,-0.0018445265723600057,0.012549567004147666,10.035100353563472
4334,0,0.452711,7.297505,5.132789,0.88,2025-06-27 13:04:33.264920,192,0.66,-0.55,10.01,-0.0,0.02,0.01,inference,0.004841308053275539,-0.002290444308773454,10.046799058187696
4335,0,0.452711,7.297505,5.132789,0.88,2025-06-27 13:04:33.294280,193,0.65,-0.56,10.01,0.01,0.02,0.01,inference,-0.00043831944240602105,-0.007217445672199618,10.04669834902761
4336,0,0.452711,7.297505,5.132789,1.0,2025-06-27 13:04:33.321987,194,0.65,-0.55,10.0,-0.0,0.02,0.01,inference,0.0019457163406018108,-0.004286655414130203,10.036183429908668
4337,0,0.452711,7.297505,5.132789,1.0,2025-06-27 13:04:33.343825,195,0.68,-0.53,9.99,0.01,0.02,0.01,inference,0.028339135887705647,0.01193961395972909,10.027086034287112
4338,0,0.452711,7.297505,5.132789,1.0,2025-06-27 13:04:33.366078,196,0.67,-0.56,9.98,-0.0,0.02,0.01,inference,0.016815469728826193,-0.014075289220331633,10.018104567542267
4339,0,0.452711,7.297505,5.132789,1.0,2025-06-27 13:04:33.392023,197,0.66,-0.54,10.0,-0.0,0.02,0.01,inference,0.0032102315131697923,0.0016025713256319074,10.036293495418457
4340,0,0.452711,7.297505,5.132789,1.0,2025-06-27 13:04:33.417973,198,0.68,-0.55,10.0,0.01,0.02,0.01,inference,0.01915824961916135,-0.006742617191818789,10.038151597708863
4341,0,0.452711,7.297505,5.132789,1.0,2025-06-27 13:04:33.447398,199,0.67,-0.55,10.01,-0.0,0.02,0.01,inference,0.005296589875530167,-0.002338022004956364,10.047460698096252
4342,0,0.452711,7.297505,5.132789,1.0,2025-06-27 13:04:33.472997,200,0.67,-0.53,9.97,-0.0,0.02,0.01,inference,0.006777374860375107,0.009678721702406579,10.006525890114721
4343,0,0.452711,7.297505,5.132789,1.0,2025-06-27 13:04:43.068295,201,0.67,-0.54,10.02,-0.0,0.02,0.01,inference,8.050893614697241e-05,-0.001185989729314052,10.056883144739562
4344,0,0.452711,7.297505,5.132789,1.0,2025-06-27 13:04:43.099891,202,0.66,-0.54,9.99,-0.0,0.02,0.01,inference,0.0003751007306155296,-0.0005306993598493959,10.02633031460951
4345,0,0.452711,7.297505,5.132789,1.0,2025-06-27 13:04:43.130374,203,0.67,-0.53,10.0,-0.0,0.02,0.01,inference,0.0070482177291328885,0.005445360140943101,10.036419713756484
4346,0,0.452711,7.297505,5.132789,1.0,2025-06-27 13:04:43.158124,204,0.65,-0.55,9.95,-0.0,0.02,0.01,inference,-0.004099693966530871,-0.011603537073345938,9.986358122480727
4347,0,0.452711,7.297505,5.132789,1.0,2025-06-27 13:04:43.186505,205,0.65,-0.53,10.0,-0.0,0.02,0.01,inference,-0.0019042751089167753,0.005706872866320323,10.035106566715594
4348,0,0.452711,7.297505,5.132789,1.0,2025-06-27 13:04:43.215953,206,0.66,-0.55,10.01,-0.0,0.02,0.01,inference,0.0065298625144522005,-0.007696364040107095,10.046795415796824
4349,0,0.452711,7.297505,5.132789,1.0,2025-06-27 13:04:43.243506,207,0.66,-0.54,10.0,-0.0,0.02,0.01,inference,0.002657707744881166,0.00025231265364877853,10.036293781716829
4350,0,0.452711,7.297505,5.132789,1.0,2025-06-27 13:04:43.270740,208,0.66,-0.55,10.0,-0.0,0.02,0.01,inference,0.003042849122168345,-0.003284459459591438,10.036836152562982
4351,0,0.452711,7.297505,5.132789,1.0,2025-06-27 13:04:43.297063,209,0.66,-0.53,9.99,-0.0,0.02,0.01,inference,0.004066009004061066,0.00977920453082426,10.02579113261041
4352,0,0.452711,7.297505,5.132789,1.0,2025-06-27 13:04:43.324209,210,0.66,-0.53,10.0,-0.0,0.02,0.01,inference,0.0033822689217833934,0.004119850762165478,10.035759641755407
4353,0,0.452711,7.297505,5.132789,1.0,2025-06-27 13:04:43.350836,211,0.65,-0.52,10.0,0.01,0.02,0.01,inference,-0.0018014290349563922,0.00705670407415504,10.034582550249963
4354,0,0.452711,7.297505,5.132789,1.0,2025-06-27 13:04:43.376151,212,0.67,-0.53,10.02,0.01,0.02,0.01,inference,0.012496050951465998,-0.0018051574629600609,10.056343301126764
4355,0,0.452711,7.297505,5.132789,1.0,2025-06-27 13:04:43.402454,213,0.66,-0.54,9.99,0.01,0.02,0.01,inference,0.00460558965764446,-0.00819909039096789,10.026325925455481
4356,0,0.452711,7.297505,5.132789,1.0,2025-06-27 13:04:43.428385,214,0.68,-0.54,10.01,-0.0,0.02,0.01,inference,0.018939096731112603,-0.004790001870647598,10.04757275995039
4357,0,0.452711,7.297505,5.132789,1.0,2025-06-27 13:04:43.453170,215,0.66,-0.54,9.96,-0.0,0.02,0.01,inference,0.0024980769899665134,-0.0014057479840969833,9.996438955122168
4358,0,0.452711,7.297505,5.132789,1.0,2025-06-27 13:04:43.479644,216,0.66,-0.54,10.01,-0.0,0.02,0.01,inference,0.004970705093034988,-0.004112561240893542,10.046255938354891
4359,0,0.452711,7.297505,5.132789,1.0,2025-06-27 13:04:43.503784,217,0.65,-0.56,9.99,-0.0,0.02,0.01,inference,-0.00040139890445545223,-0.018679821591133017,10.026756748976425
4360,0,0.452711,7.297505,5.132789,1.0,2025-06-27 13:04:43.531879,218,0.65,-0.54,10.0,-0.0,0.02,0.01,inference,0.0047117966506613485,-0.003269607806869579,10.035639845502484
4361,0,0.452711,7.297505,5.132789,1.0,2025-06-27 13:04:43.558589,219,0.63,-0.54,9.99,0.01,0.02,0.01,inference,-0.006164773790301115,-0.003287738629760617,10.02439779669277
4362,0,0.452711,7.297505,5.132789,1.0,2025-06-27 13:04:43.582778,220,0.68,-0.54,9.98,0.01,0.02,0.01,inference,0.0398584978581652,-0.0032013974642640664,10.017624521372463
4363,0,0.452711,7.297505,5.132789,1.0,2025-06-27 13:04:43.612548,221,0.65,-0.53,9.97,0.01,0.02,0.01,inference,0.006651785434901636,0.001572442293794496,10.005211306173187
4364,0,0.452711,7.297505,5.132789,1.0,2025-06-27 13:04:43.637981,222,0.65,-0.55,10.01,0.01,0.02,0.01,inference,0.004767515041548154,-0.010836439687846977,10.04614154003293
4365,0,0.452711,7.297505,5.132789,1.0,2025-06-27 13:04:43.664999,223,0.64,-0.55,9.99,-0.0,0.02,0.01,inference,0.00018187212633347105,-0.005707857097883018,10.025575663635975
4366,0,0.452711,7.297505,5.132789,1.0,2025-06-27 13:04:43.693706,224,0.66,-0.55,9.96,0.01,0.02,0.01,inference,0.017873465631106478,-0.005792445501734744,9.996966889352064
4367,0,0.452711,7.297505,5.132789,1.0,2025-06-27 13:04:43.716465,225,0.65,-0.55,10.01,-0.0,0.02,0.01,inference,0.0013436570518760016,0.0006244571257976173,10.04614840646101
4368,0,0.452711,7.297505,5.132789,1.0,2025-06-27 13:04:43.744511,226,0.66,-0.52,9.98,0.01,0.02,0.01,inference,0.012152299386776977,0.022244435622365444,10.015276207209837
4369,0,0.452711,7.297505,5.132789,1.0,2025-06-27 13:04:43.770762,227,0.66,-0.54,10.0,-0.0,0.02,0.01,inference,0.006935303052025055,0.0015541742796106872,10.036291620220783
4370,0,0.452711,7.297505,5.132789,1.0,2025-06-27 13:04:43.800376,228,0.65,-0.55,9.98,0.01,0.02,0.01,inference,0.00157617271569932,-0.004077745809017874,10.016255831780091
4371,0,0.452711,7.297505,5.132789,1.0,2025-06-27 13:04:43.828016,229,0.66,-0.53,9.99,0.01,0.02,0.01,inference,0.009051751105253247,0.010158843697156583,10.025787493443927
4372,0,0.452711,7.297505,5.132789,1.0,2025-06-27 13:04:43.855406,230,0.66,-0.54,10.0,-0.0,0.02,0.01,inference,0.004053135521055795,0.00026866676556291935,10.036293314760714
4373,0,0.452711,7.297505,5.132789,1.0,2025-06-27 13:04:43.883231,231,0.64,-0.55,9.98,-0.0,0.02,0.01,inference,-0.007111512871317394,-0.0070517111821331024,10.015607804809157
4374,0,0.452711,7.297505,5.132789,1.0,2025-06-27 13:04:43.909698,232,0.67,-0.52,9.97,-0.0,0.02,0.01,inference,0.020283311490893574,0.01848412521428333,10.005970563837876
4375,0,0.452711,7.297505,5.132789,1.0,2025-06-27 13:04:43.940967,233,0.65,-0.55,9.99,-0.0,0.02,0.01,inference,0.0018986536502048068,-0.004173191029978152,10.026219575672128
4376,0,0.452711,7.297505,5.132789,1.0,2025-06-27 13:04:43.969860,234,0.65,-0.54,10.01,-0.0,0.02,0.01,inference,0.002073185943513689,0.0003647492301773747,10.045605784065888
4377,0,0.452711,7.297505,5.132789,1.0,2025-06-27 13:04:44.000184,235,0.66,-0.53,9.99,-0.0,0.02,0.01,inference,0.0098594826676619,0.005760866860195946,10.025790223369656
4378,0,0.452711,7.297505,5.132789,1.0,2025-06-27 13:04:44.029066,236,0.66,-0.55,9.98,-0.0,0.02,0.01,inference,0.009047890994501429,-0.009326389711154626,10.016902273363934
4379,0,0.452711,7.297505,5.132789,1.0,2025-06-27 13:04:44.058616,237,0.69,-0.52,10.01,-0.0,0.02,0.01,inference,0.032835875598936304,0.01948564792974028,10.047145968622056
4380,0,0.452711,7.297505,5.132789,1.0,2025-06-27 13:04:44.084890,238,0.67,-0.55,9.99,-0.0,0.02,0.01,inference,0.011746696740941753,-0.007727223152323326,10.027527227843265
4381,0,0.452711,7.297505,5.132789,1.0,2025-06-27 13:04:44.111289,239,0.65,-0.57,10.01,-0.0,0.02,0.01,inference,-0.004959325818570726,-0.0207286113390025,10.047240702290326
4382,0,0.452711,7.297505,5.132789,1.0,2025-06-27 13:04:44.138493,240,0.66,-0.54,10.03,-0.0,0.02,0.01,inference,0.003276618572632062,0.00425851679221978,10.066184536794738
4383,0,0.349822,7.297504,5.13279,1.0,2025-06-27 13:04:44.166680,241,0.65,-0.54,9.99,-0.0,0.02,0.01,inference,0.003971675867637137,-0.0008007298120609185,10.025676215828168
4384,0,0.349822,7.297504,5.13279,1.0,2025-06-27 13:04:44.196592,242,0.67,-0.55,10.0,-0.0,0.02,0.01,inference,0.01943585883586807,-0.007131992254258979,10.037478337813628
4385,0,0.349822,7.297504,5.13279,1.0,2025-06-27 13:04:44.224932,243,0.65,-0.52,9.99,-0.0,0.02,0.01,inference,0.0017217842537016192,0.015312061266474886,10.024607851494183
4386,0,0.349822,7.297504,5.13279,1.0,2025-06-27 13:04:44.254575,244,0.65,-0.55,9.99,-0.0,0.02,0.01,inference,0.003354435124998667,-0.008009320714318924,10.026216863730141
4387,0,0.349822,7.297504,5.13279,1.0,2025-06-27 13:04:44.287021,245,0.65,-0.55,9.98,-0.0,0.02,0.01,inference,0.0032606666504243487,-0.002461587277756583,10.016255952632257
4388,0,0.349822,7.297504,5.13279,1.0,2025-06-27 13:04:44.319768,246,0.65,-0.56,9.99,0.01,0.02,0.01,inference,0.0033754934185205032,-0.006378537264951745,10.026771560193568
4389,0,0.349822,7.297504,5.13279,1.14,2025-06-27 13:04:44.349252,247,0.65,-0.53,9.98,-0.0,0.02,0.01,inference,0.004489345099206399,0.016607206314606326,10.01516370542584
4390,0,0.349822,7.297504,5.13279,1.14,2025-06-27 13:04:44.381758,248,0.64,-0.55,10.02,-0.0,0.02,0.01,inference,0.0008776316780544358,-0.0001198437625297144,10.055471108575675
4391,0,0.349822,7.297504,5.13279,1.14,2025-06-27 13:04:44.408120,249,0.66,-0.54,9.99,0.01,0.02,0.01,inference,0.01847865367229007,0.005476805477779623,10.02631181162646
4392,0,0.349822,7.297504,5.13279,1.14,2025-06-27 13:04:44.436505,250,0.68,-0.54,10.01,-0.0,0.02,0.01,inference,0.03267995258288614,0.005909309680024011,10.047536867350043
4393,0,0.349822,7.297504,5.13279,1.14,2025-06-27 13:04:44.466225,251,0.66,-0.54,9.99,-0.0,0.02,0.01,inference,0.009782274224443555,0.002507818913688231,10.026325249958498
4394,0,0.349822,7.297504,5.13279,1.14,2025-06-27 13:04:44.494762,252,0.65,-0.54,10.0,-0.0,0.02,0.01,inference,0.0031406961759733454,-0.0034232836173935244,10.03564040892044
4395,0,0.349822,7.297504,5.13279,1.14,2025-06-27 13:04:44.526296,253,0.65,-0.54,10.0,0.01,0.02,0.01,inference,0.0007593580418492341,0.000548848175780603,10.03564144049303
4396,0,0.349822,7.297504,5.13279,1.14,2025-06-27 13:04:44.558427,254,0.65,-0.54,9.99,-0.0,0.02,0.01,inference,-0.003128924510758191,1.6136561341140165e-05,10.025676546227244
4397,0,0.349822,7.297504,5.13279,1.14,2025-06-27 13:04:44.586949,255,0.66,-0.55,9.99,-0.0,0.02,0.01,inference,0.0052398425748027,-0.004269745957721893,10.026871611490755
4398,0,0.349822,7.297504,5.13279,1.14,2025-06-27 13:04:44.614492,256,0.65,-0.56,10.0,-0.0,0.02,0.01,inference,-0.0008231913641001398,-0.007658179417871502,10.036734562328725
4399,0,0.349822,7.297504,5.13279,1.14,2025-06-27 13:04:44.641110,257,0.66,-0.53,9.98,-0.0,0.02,0.01,inference,0.009122343049784543,0.015574396936808066,10.01581620343631
4400,0,0.349822,7.297504,5.13279,1.14,2025-06-27 13:04:44.666270,258,0.66,-0.54,9.99,0.01,0.02,0.01,inference,0.005353286878415742,0.001419077767991439,10.026328806125298
4401,0,0.349822,7.297504,5.13279,1.14,2025-06-27 13:04:44.693374,259,0.67,-0.54,10.0,-0.0,0.02,0.0,inference,0.010127034437336424,0.0012622089648588464,10.036951521752112
4402,0,0.349822,7.297504,5.13279,1.14,2025-06-27 13:04:44.721651,260,0.66,-0.53,10.01,-0.0,0.02,0.01,inference,0.0017429690789610985,0.0050184856389677845,10.045724054385563
4403,0,0.349822,7.297504,5.13279,1.14,2025-06-27 13:04:44.750319,261,0.67,-0.53,9.99,-0.0,0.02,0.01,inference,0.008820542058428082,0.0023107686695221785,10.026455847326412
4404,0,0.349822,7.297504,5.13279,1.14,2025-06-27 13:04:44.778417,262,0.65,-0.55,10.0,-0.0,0.02,0.01,inference,-0.005717174757957633,-0.011972908783855929,10.036175763873809
4405,0,0.349822,7.297504,5.13279,1.14,2025-06-27 13:04:44.806484,263,0.66,-0.51,10.0,-0.0,0.02,0.01,inference,0.0046360922112497205,0.021759367864332413,10.034700047164298
4406,0,0.349822,7.297504,5.13279,1.14,2025-06-27 13:04:44.834816,264,0.65,-0.52,10.0,-0.0,0.02,0.01,inference,-0.0003799448580781295,0.005592645225215742,10.034583627533397
4407,0,0.349822,7.297504,5.13279,1.14,2025-06-27 13:04:44.862092,265,0.66,-0.53,10.0,-0.0,0.02,0.01,inference,0.005790493798859653,-0.0014596033244391737,10.035759280679251
4408,0,0.349822,7.297504,5.13279,1.14,2025-06-27 13:04:44.889105,266,0.64,-0.56,9.99,-0.0,0.02,0.01,inference,-0.00833170266438743,-0.026177219463369927,10.026093223978714
4409,0,0.349822,7.297504,5.13279,1.14,2025-06-27 13:04:44.918381,267,0.66,-0.55,9.99,-0.0,0.02,0.01,inference,0.00956898642974402,-0.010223628113777972,10.026864111571818
4410,0,0.349822,7.297504,5.13279,1.14,2025-06-27 13:04:44.940642,268,0.66,-0.54,9.97,0.01,0.02,0.01,inference,0.006202024162732633,-0.0013825454979289331,10.006400932576321
4411,0,0.349822,7.297504,5.13279,1.14,2025-06-27 13:04:44.969488,269,0.65,-0.53,9.99,-0.0,0.02,0.01,inference,-2.0218935882110323e-05,0.0037588315306040787,10.02514268580636
4412,0,0.349822,7.297504,5.13279,1.14,2025-06-27 13:04:44.995192,270,0.66,-0.55,9.98,0.01,0.02,0.01,inference,0.009475994855508652,-0.011878325874969509,10.016899176436583
4413,0,0.349822,7.297504,5.13279,1.14,2025-06-27 13:04:45.022706,271,0.65,-0.54,9.99,0.01,0.02,0.01,inference,0.0049710381654712865,0.0025164573740038554,10.025675486281303
4414,0,0.349822,7.297504,5.13279,1.14,2025-06-27 13:04:45.051417,272,0.65,-0.54,10.0,-0.0,0.02,0.01,inference,0.0009584385661758343,-0.0006611803417153617,10.035641416682648
4415,0,0.349822,7.297504,5.13279,1.14,2025-06-27 13:04:45.078954,273,0.67,-0.56,9.97,-0.0,0.02,0.01,inference,0.020579773572032223,-0.017065992946711073,10.008130955618261
4416,0,0.349822,7.297504,5.13279,1.14,2025-06-27 13:04:45.107618,274,0.66,-0.55,10.0,0.01,0.02,0.01,inference,0.005031148251187001,-0.002917555882485212,10.036835466192269
4417,0,0.349822,7.297504,5.13279,1.14,2025-06-27 13:04:45.135082,275,0.67,-0.54,9.98,0.01,0.02,0.01,inference,0.012029909852821596,0.0029944365777585524,10.017022826899144
4418,0,0.349822,7.297504,5.13279,1.14,2025-06-27 13:04:45.165715,276,0.65,-0.52,10.01,-0.0,0.02,0.01,inference,-0.005714325630488903,0.018042317107600403,10.044532931962342
4419,0,0.349822,7.297504,5.13279,1.14,2025-06-27 13:04:45.192662,277,0.67,-0.54,10.01,-0.0,0.02,0.01,inference,0.010180314940365864,-0.0006479813135328305,10.046914747389266
4420,0,0.349822,7.297504,5.13279,1.14,2025-06-27 13:04:45.221564,278,0.65,-0.54,9.98,-0.0,0.02,0.01,inference,0.000517553431630069,-0.0004297277407815381,10.015712633031786
4421,0,0.349822,7.297504,5.13279,1.14,2025-06-27 13:04:45.250778,279,0.65,-0.55,10.0,-0.0,0.02,0.01,inference,0.0018888034901792805,-0.0026502636681163816,10.03618400631056
4422,0,0.349822,7.297504,5.13279,1.14,2025-06-27 13:04:45.281763,280,0.67,-0.54,9.98,-0.0,0.02,0.01,inference,0.01864326376709724,0.005054404602608087,10.017011873892846
4423,0,0.349822,7.297504,5.13279,1.14,2025-06-27 13:04:45.309175,281,0.66,-0.55,9.98,-0.0,0.02,0.01,inference,0.0052718457223231985,-0.001764985021033394,10.01690915864123
4424,0,0.349822,7.297504,5.13279,1.14,2025-06-27 13:04:45.338461,282,0.67,-0.54,9.99,-0.0,0.02,0.01,inference,0.010794403201062619,0.005616060729049188,10.026986184328837
4425,0,0.349822,7.297504,5.13279,1.14,2025-06-27 13:04:45.366042,283,0.66,-0.53,10.0,-0.0,0.02,0.01,inference,0.0020017007170417545,0.009350080378903725,10.035756502087482
4426,0,0.349822,7.297504,5.13279,1.14,2025-06-27 13:04:45.389076,284,0.65,-0.52,9.97,-0.0,0.02,0.01,inference,-0.0019567050856695856,0.011402969673428354,10.00468221102439
4427,0,0.349822,7.297504,5.13279,1.14,2025-06-27 13:04:45.417679,285,0.65,-0.55,9.98,0.01,0.02,0.01,inference,0.000877087283540301,-0.012347575656494025,10.016249136682518
4428,0,0.349822,7.297504,5.13279,1.14,2025-06-27 13:04:45.445322,286,0.65,-0.52,10.0,-0.0,0.02,0.01,inference,0.001292381635801254,0.012155533386528306,10.034577747606415
4429,0,0.349822,7.297504,5.13279,1.14,2025-06-27 13:04:45.469821,287,0.65,-0.55,10.03,-0.0,0.02,0.01,inference,0.002090919398927804,-0.009503361103575969,10.066071990313986
4430,0,0.349822,7.297504,5.13279,1.14,2025-06-27 13:04:45.498053,288,0.65,-0.55,9.98,-0.0,0.02,0.01,inference,0.004754720159776404,-0.00596250436513357,10.016253882623879
4431,0,0.349822,7.297504,5.13279,1.14,2025-06-27 13:04:45.527148,289,0.66,-0.52,10.0,-0.0,0.02,0.01,inference,0.011762415379008684,0.01951228691872775,10.035212051384049
4432,0,0.349822,7.297504,5.13279,1.14,2025-06-27 13:04:45.558200,290,0.64,-0.54,9.98,-0.0,0.02,0.01,inference,0.0019618128098568555,8.645831907572177e-05,10.015068454275063
4433,0,0.426989,7.297504,5.132785,1.14,2025-06-27 13:04:45.589820,291,0.66,-0.55,9.97,0.01,0.02,0.01,inference,0.018848969905264856,-0.008122770979536842,10.006926537999826
4434,0,0.426989,7.297504,5.132785,1.14,2025-06-27 13:04:45.618565,292,0.67,-0.54,9.99,0.01,0.02,0.01,inference,0.022785300841610567,0.0015411863360089706,10.026967560275153
4435,0,0.426989,7.297504,5.132785,1.14,2025-06-27 13:04:45.648218,293,0.66,-0.55,9.99,0.01,0.02,0.01,inference,0.009660968164852513,-0.005945521143663313,10.026867472768973
4436,0,0.426989,7.297504,5.132785,1.14,2025-06-27 13:04:45.679282,294,0.66,-0.55,10.01,0.01,0.02,0.01,inference,0.004724926294918608,-0.0024337009692130263,10.046799079914514
4437,0,0.426989,7.297504,5.132785,1.14,2025-06-27 13:04:45.709613,295,0.65,-0.54,10.01,-0.0,0.02,0.01,inference,0.0005471654551952865,0.0021114379041003994,10.04560576781908
4438,0,0.426989,7.297504,5.132785,1.14,2025-06-27 13:04:45.739672,296,0.64,-0.53,9.96,-0.0,0.02,0.01,inference,-0.0005829967193109464,0.003909126556346787,9.994602762433553
4439,0,0.426989,7.297504,5.132785,1.14,2025-06-27 13:04:45.767692,297,0.64,-0.55,9.98,-0.0,0.02,0.01,inference,0.0012739514853215006,-0.008330567946119083,10.015609266474273
4440,0,0.426989,7.297504,5.132785,1.14,2025-06-27 13:04:45.796649,298,0.64,-0.53,9.97,-0.0,0.02,0.01,inference,0.0026308010895824685,0.004683096205575277,10.004567514265451
4441,0,0.426989,7.297504,5.132785,1.14,2025-06-27 13:04:45.825123,299,0.67,-0.54,10.0,-0.0,0.02,0.01,inference,0.026335839692493312,-0.0021451157933561893,10.036921929656817
4442,0,0.426989,7.297504,5.132785,1.14,2025-06-27 13:04:45.852518,300,0.65,-0.52,10.0,-0.0,0.02,0.01,inference,0.005790836994379545,0.011088255261063829,10.034577396024318
4443,0,0.426989,7.297504,5.132785,1.14,2025-06-27 13:04:54.728342,301,0.65,-0.55,10.01,0.01,0.02,0.01,inference,0.005968974647288849,-0.012936035970060877,10.046138413854104
4444,0,0.426989,7.297504,5.132785,1.14,2025-06-27 13:04:54.756184,302,0.65,-0.54,9.98,-0.0,0.02,0.01,inference,0.004047159725811267,-0.001052375488891144,10.015711782644505
4445,0,0.426989,7.297504,5.132785,1.14,2025-06-27 13:04:54.781501,303,0.67,-0.55,9.99,-0.0,0.02,0.01,inference,0.019571224312013746,-0.007248392901664347,10.027515366628927
4446,0,0.426989,7.297504,5.132785,1.14,2025-06-27 13:04:54.805121,304,0.67,-0.54,10.0,-0.0,0.02,0.01,inference,0.014188013752530315,0.002238757071613251,10.036946432468023
4447,0,0.426989,7.297504,5.132785,1.14,2025-06-27 13:04:54.829440,305,0.65,-0.56,9.99,-0.0,0.02,0.01,inference,-0.0009558015249573337,-0.012292598760652362,10.026766576442236
4448,0,0.426989,7.297504,5.132785,1.14,2025-06-27 13:04:54.856010,306,0.65,-0.56,10.0,-0.0,0.02,0.01,inference,0.0013399376138267804,-0.005089362029220834,10.036736137956469
4449,0,0.426989,7.297504,5.132785,1.14,2025-06-27 13:04:54.880248,307,0.67,-0.55,10.02,-0.0,0.02,0.01,inference,0.015472137607902892,0.004585004600295317,10.05741217166179
4450,0,0.426989,7.297504,5.132785,1.14,2025-06-27 13:04:54.905797,308,0.67,-0.56,10.01,-0.0,0.02,0.01,inference,0.012245171489822293,-0.003560555704095414,10.04800663705087
4451,0,0.426989,7.297504,5.132785,1.14,2025-06-27 13:04:54.932907,309,0.66,-0.52,10.0,0.01,0.02,0.01,inference,0.0036177098156596754,0.028042751844707114,10.035198080568449
4452,0,0.426989,7.297504,5.132785,1.14,2025-06-27 13:04:54.957497,310,0.64,-0.54,10.0,0.01,0.02,0.01,inference,-0.007747660577273385,0.003772399010700811,10.03499505444628
4453,0,0.426989,7.297504,5.132785,1.14,2025-06-27 13:04:54.979537,311,0.66,-0.55,9.99,-0.0,0.02,0.01,inference,0.009207217527220535,-0.003218684216328205,10.026869145811036
4454,0,0.426989,7.297504,5.132785,1.14,2025-06-27 13:04:55.004697,312,0.66,-0.53,9.99,0.01,0.02,0.01,inference,0.007712833714190737,0.00999045672795007,10.025788782084454
4455,0,0.426989,7.297504,5.132785,1.14,2025-06-27 13:04:55.027631,313,0.64,-0.56,9.97,-0.0,0.02,0.01,inference,-0.005251732073174531,-0.015499770283272096,10.006189693206473
4456,0,0.426989,7.297504,5.132785,1.14,2025-06-27 13:04:55.057868,314,0.67,-0.55,9.99,-0.0,0.02,0.01,inference,0.01861218884353566,-0.002427090716407898,10.027519518587692
4457,0,0.426989,7.297504,5.132785,1.14,2025-06-27 13:04:55.085900,315,0.67,-0.56,10.0,-0.0,0.02,0.01,inference,0.014745488462974965,-0.00815307917489616,10.038038458676573
4458,0,0.426989,7.297504,5.132785,1.14,2025-06-27 13:04:55.112971,316,0.67,-0.54,10.01,-0.0,0.02,0.01,inference,0.01069337113433666,0.007995347153420318,10.04691105396269
4459,0,0.426989,7.297504,5.132785,1.14,2025-06-27 13:04:55.136824,317,0.66,-0.53,9.99,-0.0,0.02,0.01,inference,0.00313575164354285,0.01016749002616757,10.025791080468823
4460,0,0.426989,7.297504,5.132785,1.14,2025-06-27 13:04:55.169664,318,0.66,-0.53,10.0,-0.0,0.02,0.01,inference,0.003032424062943462,0.004359044041435278,10.035759652519552
4461,0,0.426989,7.297504,5.132785,1.14,2025-06-27 13:04:55.197611,319,0.67,-0.52,9.99,0.01,0.02,0.01,inference,0.010932802673549236,0.008457601180492491,10.025926837096309
4462,0,0.426989,7.297504,5.132785,1.14,2025-06-27 13:04:55.223620,320,0.64,-0.54,9.98,0.01,0.02,0.01,inference,-0.010343505943292697,-0.009928172036529626,10.015058384417179
4463,0,0.426989,7.297504,5.132785,1.14,2025-06-27 13:04:55.249240,321,0.68,-0.52,9.96,0.01,0.02,0.01,inference,0.026164839871059553,0.0072713394251796015,9.996682576173836
4464,0,0.426989,7.297504,5.132785,1.14,2025-06-27 13:04:55.450228,322,0.66,-0.56,10.02,0.01,0.02,0.01,inference,0.004680134598387453,-0.024527998105007387,10.057284746572961
4465,0,0.426989,7.297504,5.132785,1.14,2025-06-27 13:04:55.477695,323,0.67,-0.55,9.99,0.01,0.02,0.01,inference,0.013715252944067946,-0.012074281543060894,10.027520436456957
4466,0,0.426989,7.297504,5.132785,1.14,2025-06-27 13:04:55.504359,324,0.64,-0.55,10.0,0.01,0.02,0.01,inference,-0.009466858791329025,-0.009435578046593673,10.035532937938653
4467,0,0.426989,7.297504,5.132785,1.14,2025-06-27 13:04:55.531898,325,0.65,-0.56,10.02,0.01,0.02,0.01,inference,0.0017512021419930912,-0.012317972735729876,10.056656760615764
4468,0,0.426989,7.297504,5.132785,1.14,2025-06-27 13:04:55.558965,326,0.66,-0.54,10.01,-0.0,0.02,0.01,inference,0.008271866134799799,0.004030813906455877,10.046253795757398
4469,0,0.426989,7.297504,5.132785,1.14,2025-06-27 13:04:55.584669,327,0.65,-0.54,10.01,0.01,0.02,0.01,inference,0.003141706247814069,-0.003174758135792377,10.045605011675137
4470,0,0.426989,7.297504,5.132785,1.14,2025-06-27 13:04:55.615538,328,0.64,-0.51,9.98,0.01,0.02,0.01,inference,-0.002149100199305254,0.01760396141039211,10.013480188321692
4471,0,0.426989,7.297504,5.132785,1.14,2025-06-27 13:04:55.641954,329,0.65,-0.53,10.03,-0.0,0.02,0.01,inference,0.0005716728450263497,-2.049943984550051e-05,10.06500370952589
4472,0,0.426989,7.297504,5.132785,1.14,2025-06-27 13:04:55.666181,330,0.66,-0.57,10.01,-0.0,0.02,0.01,inference,0.013048687357515076,-0.03421839789458414,10.04784846785638
4473,0,0.426989,7.297504,5.132785,1.14,2025-06-27 13:04:55.689498,331,0.65,-0.53,10.02,-0.0,0.02,0.01,inference,0.0019334452861714535,-0.00045684969827020083,10.055038341701026
4474,0,0.426989,7.297504,5.132785,1.14,2025-06-27 13:04:55.715821,332,0.66,-0.54,10.02,0.01,0.02,0.01,inference,0.009195388193882215,-0.0067732214513709366,10.056215469464998
4475,0,0.426989,7.297504,5.132785,1.14,2025-06-27 13:04:55.742744,333,0.65,-0.54,10.0,-0.0,0.02,0.01,inference,0.002157445611847053,-0.0013918466598638046,10.035641155810191
4476,0,0.426989,7.297504,5.132785,1.14,2025-06-27 13:04:55.768927,334,0.66,-0.52,10.0,0.01,0.02,0.01,inference,0.010185978128689377,0.012367760391641391,10.035225123750463
4477,0,0.426989,7.297504,5.132785,1.14,2025-06-27 13:04:55.798390,335,0.67,-0.54,10.0,-0.0,0.02,0.01,inference,0.016561475371067336,-0.004961267084465981,10.036941820263904
4478,0,0.426989,7.297504,5.132785,1.14,2025-06-27 13:04:55.823707,336,0.66,-0.56,10.01,-0.0,0.02,0.01,inference,0.006877230972361148,-0.01821105113790822,10.047334027557293
4479,0,0.426989,7.297504,5.132785,1.14,2025-06-27 13:04:55.851429,337,0.68,-0.54,9.99,0.01,0.02,0.01,inference,0.023067255943579834,0.00016552203051189984,10.027640194697142
4480,0,0.426989,7.297504,5.132785,1.14,2025-06-27 13:04:55.877886,338,0.66,-0.52,10.0,-0.0,0.02,0.01,inference,0.003305749305768102,0.013531417680583635,10.035228247167929
4481,0,0.426989,7.297504,5.132785,1.14,2025-06-27 13:04:55.902169,339,0.67,-0.55,10.02,0.01,0.02,0.01,inference,0.010621744114482135,-0.010901635707730506,10.057413600568035
4482,0,0.426989,7.297504,5.132785,1.14,2025-06-27 13:04:55.929770,340,0.64,-0.53,10.01,-0.0,0.02,0.01,inference,-0.011006132934915813,0.0052671555609973275,10.044423882040729
4483,0,0.550456,7.297505,5.13278,1.14,2025-06-27 13:04:55.957723,341,0.65,-0.56,10.0,0.01,0.02,0.01,inference,0.0024675743168968145,-0.019122930320122467,10.03671899699364
4484,0,0.550456,7.297505,5.13278,1.14,2025-06-27 13:04:55.993374,342,0.69,-0.5,9.98,-0.0,0.02,0.01,inference,0.03924056044449553,0.03655067947355184,10.016168140873337
4485,0,0.550456,7.297505,5.13278,1.14,2025-06-27 13:04:56.019753,343,0.66,-0.54,10.0,0.01,0.02,0.01,inference,0.005057835092696861,-0.0019546532334173694,10.036292671979774
4486,0,0.550456,7.297505,5.13278,1.14,2025-06-27 13:04:56.044072,344,0.66,-0.54,10.01,-0.0,0.02,0.01,inference,0.00016563033879657407,0.000747497254104057,10.046257980652022
4487,0,0.550456,7.297505,5.13278,1.14,2025-06-27 13:04:56.072814,345,0.67,-0.53,9.96,-0.0,0.02,0.01,inference,0.009704255003642248,0.0050411755726458285,9.996563430198588
4488,0,0.550456,7.297505,5.13278,1.14,2025-06-27 13:04:56.101014,346,0.66,-0.53,9.96,0.01,0.02,0.01,inference,0.0021865560851692667,-0.0027382893963214805,9.995903546990823
4489,0,0.550456,7.297505,5.13278,1.33,2025-06-27 13:04:56.126516,347,0.66,-0.54,10.03,-0.0,0.02,0.01,inference,0.0013969512303245724,-0.0025966450234566896,10.06618553901933
4490,0,0.550456,7.297505,5.13278,1.33,2025-06-27 13:04:56.155967,348,0.65,-0.54,9.97,-0.0,0.02,0.01,inference,0.0014859093892918285,-0.000616456242026775,10.005748218501953
4491,0,0.550456,7.297505,5.13278,1.33,2025-06-27 13:04:56.181617,349,0.65,-0.55,10.0,-0.0,0.02,0.01,inference,0.0020000429878620496,-0.0023022041670447413,10.036184070635814
4492,0,0.550456,7.297505,5.13278,1.33,2025-06-27 13:04:56.208111,350,0.66,-0.51,10.02,-0.0,0.02,0.01,inference,0.00993476378346958,0.032689181700983116,10.054597591046013
4493,0,0.550456,7.297505,5.13278,1.33,2025-06-27 13:04:56.233484,351,0.65,-0.55,10.0,0.01,0.02,0.01,inference,0.0027468700217567754,-0.0031359866741750286,10.036183668122696
4494,0,0.550456,7.297505,5.13278,1.33,2025-06-27 13:04:56.260659,352,0.64,-0.53,10.0,-0.0,0.02,0.01,inference,-0.002946019670651112,0.010648145477691662,10.034459523958727
4495,0,0.550456,7.297505,5.13278,1.33,2025-06-27 13:04:56.279291,353,0.66,-0.53,10.0,0.01,0.02,0.01,inference,0.013579638319663578,0.006784271391549357,10.035749576742376
4496,0,0.550456,7.297505,5.13278,1.33,2025-06-27 13:04:56.305039,354,0.65,-0.54,9.99,-0.0,0.02,0.01,inference,0.0016901306455652243,0.00044923745882108346,10.025676881968824
4497,0,0.550456,7.297505,5.13278,1.33,2025-06-27 13:04:56.333604,355,0.66,-0.54,9.99,-0.0,0.02,0.01,inference,0.007127436714356783,0.0004730455904109476,10.02632779116431
4498,0,0.550456,7.297505,5.13278,1.33,2025-06-27 13:04:56.359561,356,0.66,-0.54,9.99,0.01,0.02,0.01,inference,0.0026254882836860283,-0.0008350299384632942,10.026329957144654
4499,0,0.550456,7.297505,5.13278,1.33,2025-06-27 13:04:56.386725,357,0.64,-0.55,10.01,0.01,0.02,0.01,inference,-0.010508605604951926,-0.008061157471989322,10.045497727188458
4500,0,0.550456,7.297505,5.13278,1.33,2025-06-27 13:04:56.411936,358,0.65,-0.53,10.01,-0.0,0.02,0.01,inference,0.0015229946706487585,0.005784099637181739,10.045071638603611
4501,0,0.550456,7.297505,5.13278,1.33,2025-06-27 13:04:56.437001,359,0.66,-0.53,10.0,0.01,0.02,0.01,inference,0.00823930212181434,0.0019704015017216747,10.035757481696063
4502,0,0.550456,7.297505,5.13278,1.33,2025-06-27 13:04:56.463418,360,0.67,-0.54,10.0,-0.0,0.02,0.01,inference,0.014477916561944526,-0.005009584899691499,10.036945017981875
4503,0,0.550456,7.297505,5.13278,1.33,2025-06-27 13:04:56.489550,361,0.65,-0.53,9.97,0.01,0.02,0.01,inference,0.003633320702115639,-0.0019979393894723474,10.005212781706287
4504,0,0.550456,7.297505,5.13278,1.33,2025-06-27 13:04:56.515635,362,0.65,-0.54,10.01,-0.0,0.02,0.01,inference,0.00249758094769148,-0.003262190991058178,10.045605164458703
4505,0,0.550456,7.297505,5.13278,1.33,2025-06-27 13:04:56.542636,363,0.68,-0.53,10.0,0.01,0.02,0.01,inference,0.028395333660024225,0.0049542068431458475,10.037054805113945
4506,0,0.550456,7.297505,5.13278,1.33,2025-06-27 13:04:56.569745,364,0.65,-0.53,10.0,0.01,0.02,0.01,inference,0.002966613500879123,-0.0031199162414287107,10.03510744662592
4507,0,0.550456,7.297505,5.13278,1.33,2025-06-27 13:04:56.593342,365,0.64,-0.55,9.99,0.01,0.02,0.01,inference,-0.002087794636776219,-0.01837342446795487,10.025560236634504
4508,0,0.550456,7.297505,5.13278,1.33,2025-06-27 13:04:56.617196,366,0.65,-0.56,9.99,-0.0,0.02,0.01,inference,0.008401534243281383,-0.021536218050873357,10.026747508815333
4509,0,0.550456,7.297505,5.13278,1.33,2025-06-27 13:04:56.643379,367,0.65,-0.53,9.98,0.01,0.02,0.01,inference,0.005454273189000491,0.002411210512612394,10.015176705229313
4510,0,0.550456,7.297505,5.13278,1.33,2025-06-27 13:04:56.666992,368,0.65,-0.53,9.98,0.01,0.02,0.01,inference,0.0014990349125221236,-0.0011275856262649153,10.01517830502508
4511,0,0.550456,7.297505,5.13278,1.33,2025-06-27 13:04:56.690658,369,0.65,-0.53,9.99,0.01,0.02,0.01,inference,-0.0023649901714539734,0.0024499375911638532,10.025142812181146
4512,0,0.550456,7.297505,5.13278,1.33,2025-06-27 13:04:56.714585,370,0.66,-0.55,9.99,-0.0,0.02,0.01,inference,0.007443183847858692,-0.0110769984744854,10.026865008521808
4513,0,0.550456,7.297505,5.13278,1.33,2025-06-27 13:04:56.739265,371,0.65,-0.56,10.0,-0.0,0.02,0.01,inference,8.239756928152264e-05,-0.014210837690345257,10.036727456960403
4514,0,0.550456,7.297505,5.13278,1.33,2025-06-27 13:04:56.764680,372,0.67,-0.54,9.97,0.01,0.02,0.01,inference,0.017037320553069057,0.002562103250928094,10.007052671258172
4515,0,0.550456,7.297505,5.13278,1.33,2025-06-27 13:04:56.788730,373,0.66,-0.52,10.0,0.01,0.02,0.01,inference,0.005287022148321552,0.01634570001455926,10.035223209549843
4516,0,0.550456,7.297505,5.13278,1.33,2025-06-27 13:04:56.815140,374,0.65,-0.55,9.98,-0.0,0.02,0.01,inference,0.000712406600620108,-0.008321931415348871,10.016253303403142
4517,0,0.550456,7.297505,5.13278,1.33,2025-06-27 13:04:56.839857,375,0.66,-0.53,9.99,0.01,0.02,0.01,inference,0.007490895064748537,0.006352065588076328,10.025791915741815
4518,0,0.550456,7.297505,5.13278,1.33,2025-06-27 13:04:56.864883,376,0.66,-0.53,10.02,-0.0,0.02,0.01,inference,0.0037543053563943163,0.0025724634529944446,10.055688901692568
4519,0,0.550456,7.297505,5.13278,1.33,2025-06-27 13:04:56.891847,377,0.66,-0.53,10.01,-0.0,0.02,0.01,inference,0.0004778021735240001,-0.0006035722298354251,10.045725429624566
4520,0,0.550456,7.297505,5.13278,1.33,2025-06-27 13:04:56.914642,378,0.67,-0.52,10.0,0.01,0.02,0.01,inference,0.007853365448587168,0.004064033653356114,10.035896661897311
4521,0,0.550456,7.297505,5.13278,1.33,2025-06-27 13:04:56.940296,379,0.65,-0.56,9.96,0.01,0.02,0.01,inference,-0.004631826831461905,-0.03299018947295684,9.996829006919082
4522,0,0.550456,7.297505,5.13278,1.33,2025-06-27 13:04:56.963262,380,0.66,-0.53,9.97,0.01,0.02,0.01,inference,0.0001005432449883159,0.00031189153370980716,10.005868272799455
4523,0,0.550456,7.297505,5.13278,1.33,2025-06-27 13:04:56.988964,381,0.67,-0.52,10.02,0.01,0.02,0.01,inference,0.0055680400904563054,0.006344867358912709,10.055825612031454
4524,0,0.550456,7.297505,5.13278,1.33,2025-06-27 13:04:57.015230,382,0.66,-0.52,10.0,0.01,0.02,0.01,inference,0.00248959589755704,-0.0015193307697561331,10.035237490639986
4525,0,0.550456,7.297505,5.13278,1.33,2025-06-27 13:04:57.035970,383,0.65,-0.51,9.96,0.01,0.02,0.01,inference,0.0011770566329613041,0.0002168466083928844,9.99420825115803
4526,0,0.550456,7.297505,5.13278,1.33,2025-06-27 13:04:57.060683,384,0.66,-0.52,9.99,-0.0,0.02,0.01,inference,0.006476560509882434,-0.003569237187285912,10.025270336240808
4527,0,0.550456,7.297505,5.13278,1.33,2025-06-27 13:04:57.083981,385,0.64,-0.53,10.01,0.01,0.02,0.01,inference,-0.007499577749409458,-0.009685371906513418,10.044423823689671
4528,0,0.550456,7.297505,5.13278,1.33,2025-06-27 13:04:57.111090,386,0.65,-0.56,9.98,0.01,0.02,0.01,inference,0.0066808695692041065,-0.03506789782684239,10.016747256895515
4529,0,0.550456,7.297505,5.13278,1.33,2025-06-27 13:04:57.136756,387,0.65,-0.54,9.97,0.01,0.02,0.01,inference,0.00616636564207973,-0.010414192597294925,10.005741028056208
4530,0,0.817967,7.297503,5.132767,1.33,2025-06-27 13:04:57.161744,388,0.66,-0.52,9.98,-0.0,0.02,0.01,inference,0.011447087265410882,0.006754189951538536,10.015299463576277
4531,0,0.817967,7.297503,5.132767,1.33,2025-06-27 13:04:57.187562,389,0.67,-0.53,9.99,-0.0,0.02,0.01,inference,0.016584255510248336,-0.0014839849831065344,10.026446168022733
4532,0,0.817967,7.297503,5.132767,1.33,2025-06-27 13:04:57.213769,390,0.65,-0.53,9.98,-0.0,0.02,0.01,inference,0.0039955746257795965,0.002113461418760232,10.015177460667598
4533,0,0.817967,7.297503,5.132767,1.33,2025-06-27 13:04:57.236988,391,0.65,-0.55,10.01,-0.0,0.02,0.01,inference,0.0036687266054008516,-0.009657891325686285,10.04614320351747
4534,0,0.817967,7.297503,5.132767,1.33,2025-06-27 13:04:57.260027,392,0.65,-0.55,10.01,-0.0,0.02,0.01,inference,0.003377595858825022,-0.003340071611355633,10.046147392695762
4535,0,0.817967,7.297503,5.132767,1.33,2025-06-27 13:04:57.287039,393,0.65,-0.55,10.0,-0.0,0.02,0.01,inference,0.0013236067607096391,0.0008346729196975211,10.036184411985777
4536,0,0.817967,7.297503,5.132767,1.33,2025-06-27 13:04:57.311411,394,0.65,-0.55,10.01,-0.0,0.02,0.01,inference,-0.000171479043095224,-0.004472023254657231,10.046147518905093
4537,0,0.817967,7.297503,5.132767,1.33,2025-06-27 13:04:57.335839,395,0.67,-0.53,10.0,-0.0,0.02,0.01,inference,0.016623885242557757,0.011737594220473713,10.03640303471923
4538,0,0.817967,7.297503,5.132767,1.33,2025-06-27 13:04:57.360416,396,0.65,-0.52,10.01,-0.0,0.02,0.01,inference,-0.0009698478126286547,0.015124282371303588,10.044539328186135
4539,0,0.817967,7.297503,5.132767,1.33,2025-06-27 13:04:57.385234,397,0.65,-0.57,10.0,0.01,0.02,0.01,inference,0.003253688796676757,-0.029538415862397582,10.037256442648935
4540,0,0.817967,7.297503,5.132767,1.33,2025-06-27 13:04:57.409601,398,0.66,-0.56,10.0,0.01,0.02,0.01,inference,0.011292149232199122,-0.014559017318865108,10.037373188358616
4541,0,0.817967,7.297503,5.132767,1.33,2025-06-27 13:04:57.438031,399,0.65,-0.54,9.97,-0.0,0.02,0.01,inference,0.0006822198783127398,-0.001665400393164096,10.005748185968784
4542,0,0.817967,7.297503,5.132767,1.33,2025-06-27 13:04:57.461368,400,0.67,-0.55,10.01,-0.0,0.02,0.01,inference,0.014405225024641033,-0.005814541745287394,10.047450357209847
4543,0,0.817967,7.297503,5.132767,1.33,2025-06-27 13:05:06.413062,401,0.66,-0.54,10.0,0.01,0.02,0.01,inference,0.0013903914896656877,-0.0013452436858870653,10.036293950315073
4544,0,0.817967,7.297503,5.132767,1.33,2025-06-27 13:05:06.441789,402,0.65,-0.56,9.97,0.01,0.02,0.01,inference,-0.0021519443380701997,-0.017685352801091847,10.006831796199627
4545,0,0.817967,7.297503,5.132767,1.33,2025-06-27 13:05:06.463699,403,0.67,-0.56,9.98,-0.0,0.02,0.01,inference,0.01441294152788597,-0.011699342090528586,10.018111368542034
4546,0,0.817967,7.297503,5.132767,1.33,2025-06-27 13:05:06.487624,404,0.64,-0.52,10.02,-0.0,0.02,0.01,inference,-0.013857105094493005,0.023792199783792267,10.053837173530704
4547,0,0.817967,7.297503,5.132767,1.33,2025-06-27 13:05:06.512260,405,0.67,-0.54,10.0,-0.0,0.02,0.01,inference,0.01369416374050203,0.0026883025826693885,10.036947008075149
4548,0,0.817967,7.297503,5.132767,1.33,2025-06-27 13:05:06.537453,406,0.66,-0.54,10.0,0.01,0.02,0.01,inference,0.0001839367771162559,-0.0020416123300277533,10.036293927440864
4549,0,0.817967,7.297503,5.132767,1.33,2025-06-27 13:05:06.558095,407,0.67,-0.53,10.02,-0.0,0.02,0.01,inference,0.006055040705473913,0.004564474419926801,10.056348368172978
4550,0,0.817967,7.297503,5.132767,1.33,2025-06-27 13:05:06.581026,408,0.67,-0.55,10.0,0.01,0.02,0.01,inference,0.007287500783584977,-0.01134806996719262,10.037490628321422
4551,0,0.817967,7.297503,5.132767,1.33,2025-06-27 13:05:06.602687,409,0.67,-0.54,10.0,0.01,0.02,0.01,inference,0.0025456682878168824,-0.0009497354990805063,10.036956342316902
4552,0,0.817967,7.297503,5.132767,1.33,2025-06-27 13:05:06.623090,410,0.66,-0.52,9.99,-0.0,0.02,0.01,inference,-0.0028902005818757237,0.012142313630215451,10.02526529379449
4553,0,0.817967,7.297503,5.132767,1.33,2025-06-27 13:05:06.644542,411,0.65,-0.54,10.0,-0.0,0.02,0.01,inference,-0.005095813787210357,-0.0041555442121433694,10.035639330114158
4554,0,0.817967,7.297503,5.132767,1.33,2025-06-27 13:05:06.668574,412,0.65,-0.53,9.99,-0.0,0.02,0.01,inference,0.0016802373303885787,0.0005521131412865588,10.025143234486658
4555,0,0.817967,7.297503,5.132767,1.33,2025-06-27 13:05:06.689585,413,0.66,-0.52,9.99,-0.0,0.02,0.01,inference,0.008587315780743565,0.00646511327302135,10.025267301190432
4556,0,0.817967,7.297503,5.132767,1.33,2025-06-27 13:05:06.710576,414,0.65,-0.53,10.02,-0.0,0.02,0.01,inference,0.004220038944749205,0.001860494011910463,10.05503748027989
4557,0,0.817967,7.297503,5.132767,1.33,2025-06-27 13:05:06.732373,415,0.68,-0.53,10.02,-0.0,0.02,0.01,inference,0.02959346342951452,0.0026017467625043533,10.056978545161368
4558,0,0.817967,7.297503,5.132767,1.33,2025-06-27 13:05:06.753220,416,0.66,-0.55,10.0,-0.0,0.02,0.01,inference,0.010320824145191088,-0.013382369959248686,10.036822923254315
4559,0,0.817967,7.297503,5.132767,1.33,2025-06-27 13:05:06.776210,417,0.67,-0.55,9.99,-0.0,0.02,0.01,inference,0.01746781215292814,-0.009781825307162983,10.027517100031908
4560,0,0.817967,7.297503,5.132767,1.33,2025-06-27 13:05:06.800513,418,0.65,-0.53,10.01,0.01,0.02,0.01,inference,0.00019769550930071045,0.003482871681863675,10.045072813599777
4561,0,0.817967,7.297503,5.132767,1.33,2025-06-27 13:05:06.826101,419,0.67,-0.54,9.95,0.01,0.02,0.01,inference,0.020400544942310694,-0.007380498393012136,9.987118170223557
4562,0,0.817967,7.297503,5.132767,1.33,2025-06-27 13:05:06.851122,420,0.66,-0.55,10.0,-0.0,0.02,0.01,inference,0.006596486255495804,-0.00914867998501323,10.036830813958339
4563,0,0.817967,7.297503,5.132767,1.33,2025-06-27 13:05:06.877943,421,0.68,-0.56,10.0,0.01,0.02,0.01,inference,0.02354535737709451,-0.015464216099490558,10.038685495330872
4564,0,0.817967,7.297503,5.132767,1.33,2025-06-27 13:05:06.898135,422,0.67,-0.56,10.0,-0.0,0.02,0.01,inference,0.011339233592719156,-0.010708008400275415,10.03804048409537
4565,0,0.817967,7.297503,5.132767,1.33,2025-06-27 13:05:06.927662,423,0.67,-0.55,9.98,0.01,0.02,0.01,inference,0.007890890265040085,-0.0016896292736487961,10.01757130640974
4566,0,0.817967,7.297503,5.132767,1.33,2025-06-27 13:05:06.953484,424,0.66,-0.52,10.01,-0.0,0.02,0.01,inference,-0.0020189223997755246,0.023030424944204875,10.045176231578978
4567,0,0.817967,7.297503,5.132767,1.33,2025-06-27 13:05:06.977348,425,0.67,-0.55,9.99,0.01,0.02,0.01,inference,0.0071692169020848295,-0.004523153940750646,10.027533502482425
4568,0,0.817967,7.297503,5.132767,1.33,2025-06-27 13:05:07.001505,426,0.66,-0.55,10.01,0.01,0.02,0.01,inference,0.00277584774236872,-0.00022464260669596836,10.04680009974345
4569,0,0.817967,7.297503,5.132767,1.33,2025-06-27 13:05:07.026048,427,0.66,-0.53,10.01,-0.0,0.02,0.01,inference,0.0034080363597273067,0.013285636536543799,10.045716095786801
4570,0,0.817967,7.297503,5.132767,1.33,2025-06-27 13:05:07.049864,428,0.65,-0.54,9.98,0.01,0.02,0.01,inference,0.0041908608218877985,-0.0015387069376471274,10.015711660639324
4571,0,0.817967,7.297503,5.132767,1.33,2025-06-27 13:05:07.080207,429,0.66,-0.54,9.98,-0.0,0.02,0.01,inference,0.009638422095534338,-0.0004621820900202467,10.016361958675777
4572,0,0.817967,7.297503,5.132767,1.33,2025-06-27 13:05:07.106725,430,0.65,-0.53,9.99,-0.0,0.02,0.01,inference,0.0016103071078926723,0.003222589507622664,10.025142743214577
4573,0,0.817967,7.297503,5.132767,1.33,2025-06-27 13:05:07.133730,431,0.67,-0.55,9.99,-0.0,0.02,0.01,inference,0.018989548813291734,-0.011938549106476182,10.027511997902625
4574,0,0.817967,7.297503,5.132767,1.33,2025-06-27 13:05:07.159008,432,0.66,-0.54,9.97,-0.0,0.02,0.01,inference,0.005797606769350816,-0.0011305900584076545,10.006401206703732
4575,0,0.817967,7.297503,5.132767,1.33,2025-06-27 13:05:07.181886,433,0.65,-0.53,9.98,-0.0,0.02,0.01,inference,0.0001477860023620936,0.0033991252202839606,10.01517790276873
4576,0,0.817967,7.297503,5.132767,1.33,2025-06-27 13:05:07.207163,434,0.66,-0.56,10.0,0.01,0.02,0.01,inference,0.009587803405198714,-0.019821133453301942,10.037365949127018
4577,0,0.817967,7.297503,5.132767,1.33,2025-06-27 13:05:07.232768,435,0.67,-0.52,9.99,0.01,0.02,0.01,inference,0.01627831143784375,0.014308894369327863,10.02591293958404
4578,0,0.951722,7.297503,5.132756,1.33,2025-06-27 13:05:07.259284,436,0.66,-0.54,10.01,-0.0,0.02,0.01,inference,0.0028275040394987183,-0.0005362563539924592,10.046257597615645
4579,0,0.951722,7.297503,5.132756,1.33,2025-06-27 13:05:07.282819,437,0.67,-0.55,10.0,-0.0,0.02,0.01,inference,0.010668348230218005,-0.00644959659717359,10.037491947147444
4580,0,0.951722,7.297503,5.132756,1.33,2025-06-27 13:05:07.308043,438,0.66,-0.54,10.01,-0.0,0.02,0.01,inference,0.002352427495250109,-0.0028167619381692655,10.046257339523862
4581,0,0.951722,7.297503,5.132756,1.33,2025-06-27 13:05:07.329109,439,0.67,-0.52,9.98,0.01,0.02,0.01,inference,0.011399876853770197,0.010137595500447405,10.015960626518318
4582,0,0.951722,7.297503,5.132756,1.33,2025-06-27 13:05:07.349869,440,0.67,-0.55,9.97,-0.0,0.02,0.01,inference,0.011684775481930698,-0.014638201392141448,10.00759457557519
4583,0,0.951722,7.297503,5.132756,1.33,2025-06-27 13:05:07.371154,441,0.65,-0.52,10.0,-0.0,0.02,0.01,inference,-0.005551164989345159,0.010757360115257297,10.034577891658953
4584,0,0.951722,7.297503,5.132756,1.33,2025-06-27 13:05:07.395027,442,0.65,-0.54,10.02,-0.0,0.02,0.01,inference,-9.446277665248193e-05,-0.002734145689803791,10.05557022329038
4585,0,0.951722,7.297503,5.132756,1.33,2025-06-27 13:05:07.415597,443,0.66,-0.54,10.0,-0.0,0.02,0.01,inference,0.0069346293884879895,-0.00130295833244376,10.036291656444368
4586,0,0.951722,7.297503,5.132756,1.33,2025-06-27 13:05:07.436879,444,0.65,-0.55,10.0,-0.0,0.02,0.01,inference,0.0008680020437698,-0.00510193886939303,10.036183199642792
4587,0,0.951722,7.297503,5.132756,1.33,2025-06-27 13:05:07.456100,445,0.65,-0.52,9.97,-0.0,0.02,0.01,inference,0.003270120997194259,0.016849383307030785,10.004674177832621
4588,0,0.951722,7.297503,5.132756,1.33,2025-06-27 13:05:07.481195,446,0.66,-0.53,10.01,-0.0,0.02,0.01,inference,0.007970307648354491,0.005183124873416545,10.045720960160727
4589,0,0.951722,7.297503,5.132756,1.33,2025-06-27 13:05:07.505326,447,0.64,-0.53,10.0,-0.0,0.02,0.01,inference,-0.002993203527451249,0.0018541983425418573,10.034464988362917
4590,0,0.951722,7.297503,5.132756,1.33,2025-06-27 13:05:07.527446,448,0.65,-0.54,9.98,-0.0,0.02,0.01,inference,0.006087769549929178,-0.003897830328923102,10.015710047020164
4591,0,0.951722,7.297503,5.132756,1.33,2025-06-27 13:05:07.553972,449,0.65,-0.55,10.02,-0.0,0.02,0.01,inference,0.0038474877237105742,-0.0053958079727953745,10.05611038533759
4592,0,0.951722,7.297503,5.132756,1.33,2025-06-27 13:05:07.575429,450,0.66,-0.55,9.97,-0.0,0.02,0.01,inference,0.01316384003475568,-0.004742484639800204,10.006937804451221
4593,0,0.951722,7.297503,5.132756,1.33,2025-06-27 13:05:07.598054,451,0.67,-0.53,9.98,-0.0,0.02,0.01,inference,0.018426259997835537,0.012356771582363146,10.016471823109104
4594,0,0.951722,7.297503,5.132756,1.33,2025-06-27 13:05:07.621126,452,0.66,-0.54,9.98,0.01,0.02,0.01,inference,0.004498807714302555,-0.0003217993950568321,10.0163655912299
4595,0,0.951722,7.297503,5.132756,1.33,2025-06-27 13:05:07.643929,453,0.67,-0.57,9.99,-0.0,0.02,0.01,inference,0.014031725552949958,-0.023287354167783714,10.028617093588421
4596,0,0.951722,7.297503,5.132756,1.33,2025-06-27 13:05:07.666431,454,0.65,-0.53,10.03,0.01,0.02,0.01,inference,-0.0048105093643080465,0.011221041446913715,10.064996321272478
4597,0,0.951722,7.297503,5.132756,1.33,2025-06-27 13:05:07.691418,455,0.65,-0.53,9.97,-0.0,0.02,0.01,inference,0.0018948345428311253,0.0017428887769191936,10.005213309667155
4598,0,0.951722,7.297503,5.132756,1.33,2025-06-27 13:05:07.719502,456,0.65,-0.54,9.98,0.01,0.02,0.01,inference,0.0023609720138741963,-0.0021263110815151753,10.015712151645152
4599,0,0.951722,7.297503,5.132756,1.33,2025-06-27 13:05:07.744610,457,0.67,-0.54,9.98,-0.0,0.02,0.01,inference,0.017765471338748395,-0.0007368377421401728,10.0170147172248
4600,0,0.951722,7.297503,5.132756,1.33,2025-06-27 13:05:07.768135,458,0.66,-0.53,9.98,-0.0,0.02,0.01,inference,0.005193055956926096,0.003891461274759478,10.015830364413075
4601,0,0.951722,7.297503,5.132756,1.33,2025-06-27 13:05:07.791982,459,0.65,-0.54,9.99,0.01,0.02,0.01,inference,0.0012991017181015474,-0.001800295045692124,10.025676788689756
4602,0,0.951722,7.297503,5.132756,1.33,2025-06-27 13:05:07.818338,460,0.66,-0.54,10.01,-0.0,0.02,0.01,inference,0.005375263001386799,3.361414754521341e-05,10.046256571749387
4603,0,0.951722,7.297503,5.132756,1.33,2025-06-27 13:05:07.842054,461,0.67,-0.55,10.02,-0.0,0.02,0.01,inference,0.011453115536819158,-0.005456304798347578,10.057417116480876
4604,0,0.951722,7.297503,5.132756,1.33,2025-06-27 13:05:07.866825,462,0.66,-0.56,9.97,-0.0,0.02,0.01,inference,0.0055120929306752275,-0.011952459643906899,10.007493530127311
4605,0,0.951722,7.297503,5.132756,1.33,2025-06-27 13:05:07.889749,463,0.65,-0.55,9.99,0.01,0.02,0.01,inference,0.0023316728565511147,-0.0007985314894695117,10.026220321020737
4606,0,0.951722,7.297503,5.132756,1.33,2025-06-27 13:05:07.911980,464,0.66,-0.54,9.98,-0.0,0.02,0.01,inference,0.0092608708914943,0.0053726362822135165,10.0163608846252
4607,0,0.951722,7.297503,5.132756,1.33,2025-06-27 13:05:07.937171,465,0.67,-0.55,9.98,-0.0,0.02,0.01,inference,0.015239097777220767,-0.0026446211933481845,10.017562616518935
4608,0,0.951722,7.297503,5.132756,1.33,2025-06-27 13:05:07.959010,466,0.65,-0.54,9.99,-0.0,0.02,0.01,inference,0.00048245801570989677,0.002039208051942798,10.025676815500528
4609,0,0.951722,7.297503,5.132756,1.33,2025-06-27 13:05:07.983539,467,0.65,-0.54,10.01,0.01,0.02,0.01,inference,0.003026511795473197,-0.00415787271079926,10.045604688236587
4610,0,0.951722,7.297503,5.132756,1.33,2025-06-27 13:05:08.008863,468,0.65,-0.53,10.01,-0.0,0.02,0.01,inference,0.001953226626020599,-7.673095852117617e-05,10.045073229151598
4611,0,0.951722,7.297503,5.132756,1.33,2025-06-27 13:05:08.033612,469,0.66,-0.54,9.99,0.01,0.02,0.01,inference,0.01055480158224864,-0.0074139115843224745,10.026322039017028
4612,0,0.951722,7.297503,5.132756,1.33,2025-06-27 13:05:08.057299,470,0.65,-0.54,10.02,-0.0,0.02,0.01,inference,0.0020840614076245156,0.00026939889476973455,10.055570375871888
4613,0,0.951722,7.297503,5.132756,1.33,2025-06-27 13:05:08.082841,471,0.68,-0.55,9.98,-0.0,0.02,0.01,inference,0.0308034195323289,-0.0083744978272694,10.01819749341823
4614,0,0.951722,7.297503,5.132756,1.33,2025-06-27 13:05:08.111071,472,0.66,-0.53,10.02,-0.0,0.02,0.01,inference,0.006090263408262575,0.007131170216228888,10.055685558682857
4615,0,0.951722,7.297503,5.132756,1.33,2025-06-27 13:05:08.139812,473,0.67,-0.54,10.02,-0.0,0.02,0.01,inference,0.011980839189357662,-0.0012916272829788245,10.0568759956157
4616,0,0.951722,7.297503,5.132756,1.33,2025-06-27 13:05:08.160975,474,0.66,-0.54,10.01,-0.0,0.02,0.01,inference,-0.00032448513595817463,0.0021407170953045007,10.046257776507616
4617,0,0.951722,7.297503,5.132756,1.33,2025-06-27 13:05:08.187203,475,0.66,-0.53,10.0,-0.0,0.02,0.01,inference,0.0020270595925881985,0.005143798464993521,10.035759534403303
4618,0,0.951722,7.297503,5.132756,1.33,2025-06-27 13:05:08.215625,476,0.68,-0.54,9.97,-0.0,0.02,0.01,inference,0.020034596106317637,-0.003856454628546113,10.007721206284504
4619,0,0.951722,7.297503,5.132756,1.33,2025-06-27 13:05:08.240962,477,0.66,-0.53,10.01,-0.0,0.02,0.01,inference,0.0015732761962504727,0.0012961336732615347,10.045725252307049
4620,0,0.951722,7.297503,5.132756,1.33,2025-06-27 13:05:08.266777,478,0.65,-0.53,10.01,0.01,0.02,0.01,inference,0.00028472582331162677,-0.0006671942579113965,10.045073393150648
4621,0,0.951722,7.297503,5.132756,1.33,2025-06-27 13:05:08.292036,479,0.66,-0.53,9.99,-0.0,0.02,0.01,inference,0.007078307075228052,-0.00037246128478884977,10.025794220850612
4622,0,0.951722,7.297503,5.132756,1.33,2025-06-27 13:05:08.317694,480,0.64,-0.56,10.01,0.01,0.02,0.01,inference,-0.008230522499871995,-0.024972557272230245,10.046024518678156
4623,0,0.951722,7.297503,5.132756,1.33,2025-06-27 13:05:08.350140,481,0.67,-0.53,9.98,-0.0,0.02,0.01,inference,0.018012268530806397,0.003581642607857982,10.016479557709816
4624,0,0.951722,7.297503,5.132756,1.33,2025-06-27 13:05:08.389588,482,0.66,-0.55,9.99,-0.0,0.02,0.01,inference,0.007301531296250885,-0.010278653920894443,10.02686596284773
4625,0,0.931144,7.297504,5.132748,1.33,2025-06-27 13:05:08.411218,483,0.67,-0.54,10.02,-0.0,0.02,0.01,inference,0.010297580859158773,0.0010892436038949516,10.056877883984512
4626,0,0.931144,7.297504,5.132748,1.33,2025-06-27 13:05:08.436351,484,0.66,-0.53,10.01,-0.0,0.02,0.01,inference,0.0022567670670926576,0.003640270331896067,10.045724546066069
4627,0,0.931144,7.297504,5.132748,1.33,2025-06-27 13:05:08.464000,485,0.66,-0.55,10.0,0.01,0.02,0.01,inference,0.0044333200198505285,-0.011212317002402883,10.036829909369844
4628,0,0.931144,7.297504,5.132748,1.33,2025-06-27 13:05:08.488040,486,0.64,-0.54,9.99,-0.0,0.02,0.01,inference,-0.006693405640474048,-0.00137544683065427,10.02503133693192
4629,0,0.931144,7.297504,5.132748,1.33,2025-06-27 13:05:08.509977,487,0.65,-0.53,9.97,-0.0,0.02,0.01,inference,0.0031847295000130282,0.0023409113186991792,10.005212860186045
4630,0,0.931144,7.297504,5.132748,1.33,2025-06-27 13:05:08.532201,488,0.67,-0.55,10.02,-0.0,0.02,0.01,inference,0.017237168886969134,-0.010273990699070312,10.05740509898671
4631,0,0.931144,7.297504,5.132748,1.01,2025-06-27 13:05:08.557941,489,0.65,-0.52,10.0,0.01,0.02,0.01,inference,0.0004325871899845124,0.010329978775256377,10.034579866860735
4632,0,0.931144,7.297504,5.132748,1.01,2025-06-27 13:05:08.582895,490,0.67,-0.55,9.98,-0.0,0.02,0.01,inference,0.020042257615073278,-0.015232835468049988,10.017542925719527
4633,0,0.931144,7.297504,5.132748,1.01,2025-06-27 13:05:08.611953,491,0.66,-0.54,9.98,0.01,0.02,0.01,inference,0.006073832572845772,-0.0032040539766711174,10.016364252691492
4634,0,0.931144,7.297504,5.132748,1.01,2025-06-27 13:05:08.633521,492,0.68,-0.54,10.0,0.01,0.02,0.01,inference,0.020157046781043686,-0.0017666433341800847,10.037608807501737
4635,0,0.931144,7.297504,5.132748,1.01,2025-06-27 13:05:08.657116,493,0.67,-0.53,10.01,0.01,0.02,0.01,inference,0.006271540837057943,0.0029437949779766437,10.04638502158098
4636,0,0.931144,7.297504,5.132748,1.01,2025-06-27 13:05:08.678100,494,0.66,-0.55,9.97,-0.0,0.02,0.01,inference,0.001985700530174439,-0.012725032009099468,10.006939298834276
4637,0,0.931144,7.297504,5.132748,1.01,2025-06-27 13:05:08.698884,495,0.68,-0.54,9.97,-0.0,0.02,0.01,inference,0.016969244421229157,-0.0011007090549394194,10.007727555903157
4638,0,0.931144,7.297504,5.132748,1.01,2025-06-27 13:05:08.720416,496,0.67,-0.56,10.0,-0.0,0.02,0.01,inference,0.006023289102407903,-0.013497502757759405,10.038041718254
4639,0,0.931144,7.297504,5.132748,1.01,2025-06-27 13:05:08.741998,497,0.64,-0.55,10.0,-0.0,0.02,0.01,inference,-0.015778250318769338,-0.0034656504519742226,10.035528836891649
4640,0,0.931144,7.297504,5.132748,1.01,2025-06-27 13:05:08.764505,498,0.64,-0.52,10.0,0.01,0.02,0.01,inference,-0.011408874107696088,0.020069697012366716,10.033915838039178
4641,0,0.931144,7.297504,5.132748,1.01,2025-06-27 13:05:08.784960,499,0.67,-0.54,10.01,-0.0,0.02,0.01,inference,0.014174901812344598,0.0014825224583674412,10.046909817166956
4642,0,0.931144,7.297504,5.132748,1.01,2025-06-27 13:05:08.810554,500,0.68,-0.51,10.0,0.01,0.02,0.01,inference,0.021629579912881503,0.02523225982761601,10.036004956870878
4643,0,0.931144,7.297504,5.132748,1.01,2025-06-27 13:05:18.087513,501,0.64,-0.54,10.04,0.01,0.02,0.01,inference,-0.011060144736113275,-0.003924587767446419,10.074852965220348
4644,0,0.931144,7.297504,5.132748,1.01,2025-06-27 13:05:18.124985,502,0.67,-0.55,9.98,-0.0,0.02,0.01,inference,0.019868194730151,-0.011684852908848686,10.017548039268425
4645,0,0.931144,7.297504,5.132748,1.01,2025-06-27 13:05:18.155972,503,0.66,-0.54,10.0,0.01,0.02,0.01,inference,0.0036750132289803394,-0.0010711493593386079,10.036293406777066
4646,0,0.931144,7.297504,5.132748,1.01,2025-06-27 13:05:18.185778,504,0.66,-0.56,10.01,0.01,0.02,0.01,inference,0.004756611616414941,-0.014857652441344515,10.047340773797307
4647,0,0.931144,7.297504,5.132748,1.01,2025-06-27 13:05:18.217509,505,0.66,-0.53,9.99,-0.0,0.02,0.01,inference,0.004699763889986941,0.007940594462577777,10.0257924803568
4648,0,0.931144,7.297504,5.132748,1.01,2025-06-27 13:05:18.245285,506,0.65,-0.54,9.98,0.01,0.02,0.01,inference,0.003292925383586387,2.9637497136580926e-05,10.015712114261474
4649,0,0.931144,7.297504,5.132748,1.01,2025-06-27 13:05:18.278448,507,0.64,-0.56,10.01,-0.0,0.02,0.01,inference,-0.003206773708240962,-0.012592598806752786,10.046050524612031
4650,0,0.931144,7.297504,5.132748,1.01,2025-06-27 13:05:18.304172,508,0.66,-0.55,9.99,0.01,0.02,0.01,inference,0.013189031467798595,-0.002531193357995898,10.02686489599362
4651,0,0.931144,7.297504,5.132748,1.01,2025-06-27 13:05:18.328466,509,0.68,-0.52,9.99,-0.0,0.02,0.01,inference,0.02889390742603548,0.02411338342119007,10.02653896850023
4652,0,0.931144,7.297504,5.132748,1.01,2025-06-27 13:05:18.355729,510,0.66,-0.54,10.0,0.01,0.02,0.01,inference,0.00514841693389867,0.0003877339647544442,10.036292808774835
4653,0,0.931144,7.297504,5.132748,1.01,2025-06-27 13:05:18.378229,511,0.64,-0.54,9.98,-0.0,0.02,0.01,inference,-0.004830909878438372,-0.0006596751444648552,10.015067459939473
4654,0,0.931144,7.297504,5.132748,1.01,2025-06-27 13:05:18.402509,512,0.68,-0.53,9.99,-0.0,0.02,0.01,inference,0.02972482866174142,0.00975716261904469,10.027084383425656
4655,0,0.931144,7.297504,5.132748,1.01,2025-06-27 13:05:18.428262,513,0.67,-0.54,10.0,-0.0,0.02,0.01,inference,0.014980566877632717,2.8663430136743884e-05,10.036945530478604
4656,0,0.931144,7.297504,5.132748,1.01,2025-06-27 13:05:18.456492,514,0.69,-0.54,10.02,-0.0,0.02,0.01,inference,0.02900460994655074,0.0017787733628921165,10.058193454520904
4657,0,0.931144,7.297504,5.132748,1.01,2025-06-27 13:05:18.480031,515,0.66,-0.53,10.02,-0.0,0.02,0.01,inference,0.0015691643391262389,0.0038822596263369813,10.055689059720546
4658,0,0.931144,7.297504,5.132748,1.01,2025-06-27 13:05:18.505571,516,0.66,-0.54,9.98,0.01,0.02,0.01,inference,0.0035052624094745743,-0.0032425271796506783,10.016365468529639
4659,0,0.931144,7.297504,5.132748,1.01,2025-06-27 13:05:18.526079,517,0.66,-0.54,9.95,-0.0,0.02,0.01,inference,0.002602882577324439,-0.0003211357138209747,9.986475510502899
4660,0,0.931144,7.297504,5.132748,1.01,2025-06-27 13:05:18.550519,518,0.66,-0.55,9.99,0.01,0.02,0.01,inference,0.0021663004492865623,-0.002498467133290938,10.026873344408234
4661,0,0.931144,7.297504,5.132748,1.01,2025-06-27 13:05:18.576258,519,0.66,-0.53,10.0,0.01,0.02,0.01,inference,0.002463660849229554,0.010512563194746194,10.035755248928218
4662,0,0.931144,7.297504,5.132748,1.01,2025-06-27 13:05:18.602101,520,0.66,-0.54,9.99,-0.0,0.02,0.01,inference,-0.0009506344435039615,0.0001342107560442507,10.026330289706284
4663,0,0.931144,7.297504,5.132748,1.01,2025-06-27 13:05:18.631572,521,0.67,-0.53,9.98,0.01,0.02,0.01,inference,0.00687579807643679,0.004382129522073008,10.016493074941033
4664,0,0.931144,7.297504,5.132748,1.01,2025-06-27 13:05:18.663662,522,0.65,-0.55,9.99,0.01,0.02,0.01,inference,-0.00659378179344472,-0.011723652705725951,10.026211601497792
4665,0,0.931144,7.297504,5.132748,1.01,2025-06-27 13:05:18.690467,523,0.66,-0.53,9.97,-0.0,0.02,0.01,inference,0.0029324463802336,0.0019521295916202774,10.005867658026881
4666,0,0.931144,7.297504,5.132748,1.01,2025-06-27 13:05:18.717183,524,0.65,-0.53,9.98,-0.0,0.02,0.01,inference,0.0007209089116638756,0.0004967310685842774,10.015178442421712
4667,0,0.931144,7.297504,5.132748,1.01,2025-06-27 13:05:18.740359,525,0.68,-0.55,9.96,0.01,0.02,0.01,inference,0.029289421014112915,-0.01651098618079805,9.998268325922844
4668,0,0.931144,7.297504,5.132748,1.01,2025-06-27 13:05:18.768777,526,0.66,-0.55,10.04,-0.0,0.02,0.01,inference,0.004145203927271579,-0.006971574886793341,10.076687660855027
4669,0,0.931144,7.297504,5.132748,1.01,2025-06-27 13:05:18.803625,527,0.66,-0.53,10.01,0.01,0.02,0.01,inference,0.004591211427963815,0.004590901516853596,10.045723360933293
4670,0,0.931144,7.297504,5.132748,1.01,2025-06-27 13:05:18.830943,528,0.63,-0.54,10.03,0.01,0.02,0.01,inference,-0.017616824790495755,-0.005272008404004436,10.06424671067893
4671,0,1.270678,7.297495,5.13273,1.01,2025-06-27 13:05:18.859184,529,0.64,-0.55,10.0,0.01,0.02,0.01,inference,-0.0010639287652404184,-0.01077965967023875,10.035535993009692
4672,0,1.270678,7.297495,5.13273,1.01,2025-06-27 13:05:18.884924,530,0.64,-0.54,10.0,-0.0,0.02,0.01,inference,0.006380083840862971,0.0024360175098219194,10.034996430510022
4673,0,1.270678,7.297495,5.13273,1.01,2025-06-27 13:05:18.914028,531,0.65,-0.53,10.0,-0.0,0.02,0.01,inference,0.012793328125197512,0.00889608476329351,10.035096272105786
4674,0,1.270678,7.297495,5.13273,1.01,2025-06-27 13:05:18.937545,532,0.65,-0.56,10.0,0.01,0.02,0.01,inference,0.012610264757655032,-0.01639378485896692,10.036716207258268
4675,0,1.270678,7.297495,5.13273,1.01,2025-06-27 13:05:18.964655,533,0.65,-0.53,9.99,-0.0,0.02,0.01,inference,0.009455634356377751,0.00829021223723031,10.025135503491212
4676,0,1.270678,7.297495,5.13273,1.01,2025-06-27 13:05:18.991433,534,0.67,-0.53,9.98,-0.0,0.02,0.01,inference,0.0257643970731799,0.007104032665370574,10.016460738632352
4677,0,1.270678,7.297495,5.13273,1.01,2025-06-27 13:05:19.016781,535,0.66,-0.52,9.98,-0.0,0.02,0.01,inference,0.01288566484479925,0.011882801952540989,10.01529294422581
4678,0,1.270678,7.297495,5.13273,1.01,2025-06-27 13:05:19.041640,536,0.65,-0.53,9.99,-0.0,0.02,0.01,inference,-0.000652128949755415,-0.0017248466640367166,10.025143220903722
4679,0,1.270678,7.297495,5.13273,1.01,2025-06-27 13:05:19.069396,537,0.65,-0.55,10.0,-0.0,0.02,0.01,inference,0.0017917980521832133,-0.014402479962533632,10.036174039843605
4680,0,1.270678,7.297495,5.13273,1.01,2025-06-27 13:05:19.093392,538,0.65,-0.53,10.01,-0.0,0.02,0.01,inference,0.0020377729625888907,-0.00040898670501765544,10.045073204323165
4681,0,1.270678,7.297495,5.13273,1.01,2025-06-27 13:05:19.118204,539,0.67,-0.53,10.01,-0.0,0.02,0.01,inference,0.017410293199709215,0.000589696194083611,10.046372307153918
4682,0,1.270678,7.297495,5.13273,1.01,2025-06-27 13:05:19.145528,540,0.65,-0.54,10.01,0.01,0.02,0.01,inference,0.0013381964097037846,-0.004740570279716416,10.045604796936011
4683,0,1.270678,7.297495,5.13273,1.01,2025-06-27 13:05:19.171446,541,0.66,-0.54,10.01,-0.0,0.02,0.01,inference,0.007168900664745181,-0.0017495708578308955,10.046255299655941
4684,0,1.270678,7.297495,5.13273,1.01,2025-06-27 13:05:19.198201,542,0.67,-0.55,10.02,-0.0,0.02,0.01,inference,0.013403394821563386,-0.007008959575618645,10.057413744273076
4685,0,1.270678,7.297495,5.13273,1.01,2025-06-27 13:05:19.224436,543,0.67,-0.55,10.01,0.01,0.02,0.01,inference,0.010360000288646698,-0.005239832960080459,10.047455658749861
4686,0,1.270678,7.297495,5.13273,1.01,2025-06-27 13:05:19.252649,544,0.66,-0.57,10.0,-0.0,0.02,0.01,inference,0.0035787121056205518,-0.019450334742796116,10.037933496357608
4687,0,1.270678,7.297495,5.13273,1.01,2025-06-27 13:05:19.278043,545,0.66,-0.53,10.0,0.01,0.02,0.01,inference,0.003227747526533098,0.01301311792720794,10.035752101382725
4688,0,1.270678,7.297495,5.13273,1.01,2025-06-27 13:05:19.305647,546,0.66,-0.57,9.99,0.01,0.02,0.01,inference,0.0065610838181960895,-0.02176353133334452,10.027965062807262
4689,0,1.270678,7.297495,5.13273,1.01,2025-06-27 13:05:19.329460,547,0.64,-0.54,9.99,0.01,0.02,0.01,inference,-0.006769763781139804,0.0034299887962455644,10.025030793243243
4690,0,1.270678,7.297495,5.13273,1.01,2025-06-27 13:05:19.354334,548,0.66,-0.56,10.0,0.01,0.02,0.01,inference,0.011150086609338916,-0.010896563341236232,10.037377991312072
4691,0,1.270678,7.297495,5.13273,1.01,2025-06-27 13:05:19.380805,549,0.65,-0.55,9.99,0.01,0.02,0.01,inference,-0.00031441250251507125,0.0026064682865926114,10.026220280218656
4692,0,1.270678,7.297495,5.13273,1.01,2025-06-27 13:05:19.407465,550,0.67,-0.53,9.95,0.01,0.02,0.01,inference,0.018800540111921338,0.016013820331220008,9.986575493994422
4693,0,1.270678,7.297495,5.13273,1.01,2025-06-27 13:05:19.432424,551,0.65,-0.53,9.98,-0.0,0.02,0.01,inference,0.00012575234377154576,0.010194561258224433,10.015173291316886
4694,0,1.270678,7.297495,5.13273,1.01,2025-06-27 13:05:19.459791,552,0.64,-0.56,9.98,0.01,0.02,0.01,inference,-0.0037494453065538558,-0.014974333759358638,10.016155036289542
4695,0,1.270678,7.297495,5.13273,1.01,2025-06-27 13:05:19.486781,553,0.68,-0.52,10.02,0.01,0.02,0.01,inference,0.028710500900507085,0.02371917503084886,10.05643143007866
4696,0,1.270678,7.297495,5.13273,1.01,2025-06-27 13:05:19.510642,554,0.65,-0.55,10.01,-0.0,0.02,0.01,inference,0.0022511669282692104,-0.0015353827455701907,10.046148146172605
4697,0,1.270678,7.297495,5.13273,1.01,2025-06-27 13:05:19.535839,555,0.66,-0.53,9.98,-0.0,0.02,0.01,inference,0.011294575456195277,0.012306137853046129,10.015818538269173
4698,0,1.270678,7.297495,5.13273,1.01,2025-06-27 13:05:19.561324,556,0.64,-0.51,10.01,-0.0,0.02,0.01,inference,-0.007370785229899757,0.026659260144948238,10.043357753031284
4699,0,1.270678,7.297495,5.13273,1.01,2025-06-27 13:05:19.585907,557,0.66,-0.53,9.97,-0.0,0.02,0.01,inference,0.01205064318691329,0.00371854463965271,10.005860330547522
4700,0,1.270678,7.297495,5.13273,1.01,2025-06-27 13:05:19.611654,558,0.69,-0.53,10.01,-0.0,0.02,0.01,inference,0.03479560660946246,0.0062545412529243505,10.047678843716813
4701,0,1.270678,7.297495,5.13273,1.01,2025-06-27 13:05:19.633063,559,0.65,-0.55,10.04,-0.0,0.02,0.01,inference,-0.0014392213221571248,-0.008026308193697318,10.076037589599336
4702,0,1.270678,7.297495,5.13273,1.01,2025-06-27 13:05:19.657192,560,0.67,-0.54,10.0,0.01,0.02,0.01,inference,0.01619413060554331,-0.00015914813871786837,10.036943644596487
4703,0,1.270678,7.297495,5.13273,1.01,2025-06-27 13:05:19.682863,561,0.64,-0.52,9.98,0.01,0.02,0.01,inference,-0.007196690420043006,0.011155622175439028,10.014001386046484
4704,0,1.270678,7.297495,5.13273,1.01,2025-06-27 13:05:19.709650,562,0.65,-0.54,10.0,0.01,0.02,0.01,inference,0.0024368441253109774,-0.0018301088986506509,10.035641021503915
4705,0,1.270678,7.297495,5.13273,1.01,2025-06-27 13:05:19.734194,563,0.67,-0.52,9.99,0.01,0.02,0.01,inference,0.019098951971082023,0.013570152399667634,10.025908990261057
4706,0,1.270678,7.297495,5.13273,1.01,2025-06-27 13:05:19.759850,564,0.66,-0.51,10.01,-0.0,0.02,0.01,inference,0.007413152944408696,0.017832952681707426,10.044671574071602
4707,0,1.270678,7.297495,5.13273,1.01,2025-06-27 13:05:19.785856,565,0.67,-0.53,10.0,0.01,0.02,0.01,inference,0.014587404664447745,-0.0021889071873837374,10.036412826120223
4708,0,1.270678,7.297495,5.13273,1.01,2025-06-27 13:05:19.810083,566,0.65,-0.56,9.96,-0.0,0.02,0.01,inference,0.0011318302712695072,-0.028384505174270658,9.996844153973107
4709,0,1.270678,7.297495,5.13273,1.01,2025-06-27 13:05:19.833473,567,0.69,-0.52,9.99,0.01,0.02,0.01,inference,0.03294025167943193,0.011805693308514387,10.027231699997005
4710,0,1.270678,7.297495,5.13273,1.01,2025-06-27 13:05:19.857878,568,0.67,-0.54,9.98,0.01,0.02,0.01,inference,0.01130051241177188,-0.006903563815674418,10.017021744971201
4711,0,1.270678,7.297495,5.13273,1.01,2025-06-27 13:05:19.884073,569,0.66,-0.54,10.01,0.01,0.02,0.01,inference,0.0021835818138320473,-0.00020414573163651806,10.046257770448406
4712,0,1.270678,7.297495,5.13273,1.01,2025-06-27 13:05:19.910982,570,0.66,-0.55,10.01,-0.0,0.02,0.01,inference,0.0030527923734655626,-0.00360997961546905,10.046799373357961
4713,0,1.270678,7.297495,5.13273,1.01,2025-06-27 13:05:19.936983,571,0.65,-0.54,9.99,0.01,0.02,0.01,inference,0.0012159692712190306,-0.0001242436312306472,10.02567695998541
4714,0,1.270678,7.297495,5.13273,1.01,2025-06-27 13:05:19.960369,572,0.68,-0.54,10.0,-0.0,0.02,0.01,inference,0.02589028095662338,0.0017374296269493383,10.037595662044287
4715,0,1.270678,7.297495,5.13273,1.01,2025-06-27 13:05:19.984961,573,0.66,-0.55,9.96,-0.0,0.02,0.01,inference,0.007088358819421714,-0.006052412333627855,9.996980200214173
4716,0,1.270678,7.297495,5.13273,1.01,2025-06-27 13:05:20.011416,574,0.67,-0.55,9.97,0.01,0.02,0.01,inference,0.012176139459922797,-0.0039042223733444237,10.007603933943207
4717,0,1.270678,7.297495,5.13273,1.01,2025-06-27 13:05:20.039513,575,0.67,-0.55,9.99,0.01,0.02,0.01,inference,0.006537104591979204,-0.002010838901571166,10.02753475300836
4718,0,1.270678,7.297495,5.13273,1.01,2025-06-27 13:05:20.063936,576,0.71,-0.53,10.0,-0.0,0.02,0.01,inference,0.040724852426306746,0.018021092458061105,10.039074495521062
4719,0,1.260389,7.297491,5.13272,1.01,2025-06-27 13:05:20.089734,577,0.65,-0.56,9.97,0.01,0.02,0.01,inference,-0.008856765143705037,-0.012667456565938262,10.006835718310526
4720,0,1.260389,7.297491,5.13272,1.01,2025-06-27 13:05:20.114432,578,0.68,-0.54,10.0,-0.0,0.02,0.01,inference,0.014281852105036297,0.007291554126841682,10.037616393444157
4721,0,1.260389,7.297491,5.13272,1.01,2025-06-27 13:05:20.142722,579,0.65,-0.52,9.98,0.01,0.02,0.01,inference,-0.009672924675573125,0.018152190597045093,10.014633140185653
4722,0,1.260389,7.297491,5.13272,1.01,2025-06-27 13:05:20.167604,580,0.66,-0.52,9.97,0.01,0.02,0.01,inference,0.0027216888889974866,0.010784435052943964,10.005337390031892
4723,0,1.260389,7.297491,5.13272,1.01,2025-06-27 13:05:20.194880,581,0.69,-0.55,10.0,0.01,0.02,0.01,inference,0.02830010244767156,-0.013886193867073127,10.038805022402885
4724,0,1.260389,7.297491,5.13272,1.01,2025-06-27 13:05:20.221986,582,0.67,-0.55,10.0,-0.0,0.02,0.01,inference,0.007204450609538338,-0.009044924219541062,10.037493027904793
4725,0,1.260389,7.297491,5.13272,1.01,2025-06-27 13:05:20.249048,583,0.65,-0.54,9.99,-0.0,0.02,0.01,inference,-0.0039044067872265886,-0.0001488781109854065,10.025676273122075
4726,0,1.260389,7.297491,5.13272,1.01,2025-06-27 13:05:20.276680,584,0.67,-0.52,9.98,-0.0,0.02,0.01,inference,0.013689198534789782,0.015325071226349019,10.015951165417862
4727,0,1.260389,7.297491,5.13272,1.01,2025-06-27 13:05:20.309419,585,0.65,-0.53,9.99,-0.0,0.02,0.01,inference,0.0009426151829744489,0.000992354090116665,10.025143297066132
4728,0,1.260389,7.297491,5.13272,1.01,2025-06-27 13:05:20.335948,586,0.66,-0.53,9.98,-0.0,0.02,0.01,inference,0.0070578539210108815,0.0006266211577139469,10.015829960320014
4729,0,1.260389,7.297491,5.13272,1.01,2025-06-27 13:05:20.360946,587,0.64,-0.55,10.03,-0.0,0.02,0.01,inference,-0.008872925021269351,-0.012717759345019064,10.06542396175138
4730,0,1.260389,7.297491,5.13272,1.01,2025-06-27 13:05:20.390216,588,0.67,-0.54,10.0,-0.0,0.02,0.01,inference,0.018005829645363125,-0.0016538662781220848,10.03694042299869
4731,0,1.260389,7.297491,5.13272,1.01,2025-06-27 13:05:20.415212,589,0.63,-0.54,10.0,0.01,0.02,0.01,inference,-0.013230227265314976,-0.0035487511724801024,10.03435659957586
4732,0,1.260389,7.297491,5.13272,1.01,2025-06-27 13:05:20.440937,590,0.68,-0.53,10.01,0.01,0.02,0.01,inference,0.031120605169606352,0.007126972668215492,10.047008545542027
4733,0,1.260389,7.297491,5.13272,1.01,2025-06-27 13:05:20.464411,591,0.65,-0.54,9.99,-0.0,0.02,0.01,inference,0.001914528112720748,0.00041263734524099593,10.025676843201786
4734,0,1.260389,7.297491,5.13272,1.01,2025-06-27 13:05:20.490011,592,0.66,-0.55,10.01,-0.0,0.02,0.01,inference,0.007753428037376331,-0.003948399487427534,10.046796718083586
4735,0,1.260389,7.297491,5.13272,1.01,2025-06-27 13:05:20.515860,593,0.66,-0.53,10.0,0.01,0.02,0.01,inference,0.0066402905657446665,0.00868330210965862,10.035755103967299
4736,0,1.260389,7.297491,5.13272,1.01,2025-06-27 13:05:20.543018,594,0.64,-0.55,10.01,0.01,0.02,0.01,inference,-0.005924415348768086,-0.008219551683320891,10.045501348378433
4737,0,1.260389,7.297491,5.13272,1.01,2025-06-27 13:05:20.571039,595,0.65,-0.54,10.01,-0.0,0.02,0.01,inference,3.135035761558935e-05,-0.001158396098833392,10.045605937778749
4738,0,1.260389,7.297491,5.13272,1.01,2025-06-27 13:05:20.598306,596,0.69,-0.52,9.99,0.01,0.02,0.01,inference,0.03636657780147101,0.016258427409267973,10.02721362770123
4739,0,1.260389,7.297491,5.13272,1.01,2025-06-27 13:05:20.625167,597,0.68,-0.55,9.98,-0.0,0.02,0.01,inference,0.02485382364851052,-0.011530502141701537,10.018210884932023
4740,0,1.260389,7.297491,5.13272,1.01,2025-06-27 13:05:20.651700,598,0.7,-0.51,9.99,-0.0,0.02,0.01,inference,0.03864500323730913,0.026315537851165915,10.027363265394966
4741,0,1.260389,7.297491,5.13272,1.01,2025-06-27 13:05:20.680137,599,0.64,-0.53,10.0,0.01,0.02,0.01,inference,-0.01213655695348892,0.0015643926867115465,10.034458144646418
4742,0,1.260389,7.297491,5.13272,1.01,2025-06-27 13:05:20.707657,600,0.65,-0.54,9.98,-0.0,0.02,0.01,inference,0.00197488228518905,-0.0020566306166637793,10.015712249765889
4743,0,1.260389,7.297491,5.13272,1.01,2025-06-27 13:05:29.771961,601,0.63,-0.57,9.99,0.01,0.02,0.01,inference,-0.011858417284544176,-0.027563948238379488,10.02601613836209
4744,0,1.260389,7.297491,5.13272,1.01,2025-06-27 13:05:29.798219,602,0.7,-0.52,9.99,0.01,0.02,0.01,inference,0.05135190990108196,0.022603426654519754,10.027828880991786
4745,0,1.260389,7.297491,5.13272,1.01,2025-06-27 13:05:29.818747,603,0.66,-0.54,10.0,-0.0,0.02,0.01,inference,0.007352909506049832,0.0005723977576015393,10.036291426970553
4746,0,1.260389,7.297491,5.13272,1.01,2025-06-27 13:05:29.839607,604,0.68,-0.52,10.01,0.01,0.02,0.01,inference,0.02263227900604925,0.016986352096688306,10.046496864270123
4747,0,1.260389,7.297491,5.13272,1.01,2025-06-27 13:05:29.860220,605,0.65,-0.51,9.99,-0.0,0.02,0.01,inference,-0.002688400199891139,0.01804970675225881,10.024089334228348
4748,0,1.260389,7.297491,5.13272,1.01,2025-06-27 13:05:29.881087,606,0.64,-0.54,10.02,-0.0,0.02,0.01,inference,-0.005937487111684514,-0.006527087573283186,10.054925267915948
4749,0,1.260389,7.297491,5.13272,1.01,2025-06-27 13:05:29.902927,607,0.65,-0.56,10.0,-0.0,0.02,0.01,inference,0.006955861325495749,-0.020282788615627823,10.036714613083268
4750,0,1.260389,7.297491,5.13272,1.01,2025-06-27 13:05:29.923463,608,0.65,-0.53,10.01,0.01,0.02,0.01,inference,0.004005257593527989,0.003286243510993714,10.04507208329115
4751,0,1.260389,7.297491,5.13272,1.01,2025-06-27 13:05:29.943995,609,0.66,-0.53,10.01,0.01,0.02,0.01,inference,0.009696272489227442,0.001272144043983514,10.045720699081242
4752,0,1.260389,7.297491,5.13272,1.01,2025-06-27 13:05:29.963625,610,0.67,-0.54,10.0,-0.0,0.02,0.01,inference,0.016823285185602055,-0.005919591163200455,10.03694086539898
4753,0,1.260389,7.297491,5.13272,1.01,2025-06-27 13:05:29.983868,611,0.66,-0.56,9.99,-0.0,0.02,0.01,inference,0.008660499908505148,-0.020465311159742317,10.027402762768657
4754,0,1.260389,7.297491,5.13272,1.01,2025-06-27 13:05:30.004429,612,0.67,-0.55,9.99,-0.0,0.02,0.01,inference,0.014349317049208277,-0.006568173564715507,10.027524667443917
4755,0,1.260389,7.297491,5.13272,1.01,2025-06-27 13:05:30.024431,613,0.66,-0.54,9.98,-0.0,0.02,0.01,inference,0.0006977619953368874,-0.0005146283222107195,10.016366569184951
4756,0,1.260389,7.297491,5.13272,1.01,2025-06-27 13:05:30.044956,614,0.66,-0.54,10.0,-0.0,0.02,0.01,inference,0.00673360820843194,-0.0031878557608159275,10.036291371622095
4757,0,1.260389,7.297491,5.13272,1.01,2025-06-27 13:05:30.066051,615,0.65,-0.52,9.99,0.01,0.02,0.01,inference,-3.8985185184747806e-05,0.008424370367650813,10.024616153672124
4758,0,1.260389,7.297491,5.13272,1.01,2025-06-27 13:05:30.086368,616,0.66,-0.55,9.98,0.01,0.02,0.01,inference,0.011070592463789164,-0.01649694446014449,10.016890999347352
4759,0,1.260389,7.297491,5.13272,1.01,2025-06-27 13:05:30.107241,617,0.66,-0.53,10.0,0.01,0.02,0.01,inference,0.004845000915665532,0.0005856015305313322,10.035759870734102
4760,0,1.260389,7.297491,5.13272,1.01,2025-06-27 13:05:30.132411,618,0.67,-0.53,10.01,-0.0,0.02,0.01,inference,0.00960501095967814,0.0010656978856538046,10.046382762370367
4761,0,1.260389,7.297491,5.13272,1.01,2025-06-27 13:05:30.152841,619,0.66,-0.54,10.03,-0.0,0.02,0.01,inference,0.0017890027233650185,-0.0017524391384341476,10.06618565934616
4762,0,1.260389,7.297491,5.13272,1.01,2025-06-27 13:05:30.173281,620,0.65,-0.52,10.0,-0.0,0.02,0.01,inference,-0.0024698961509713735,0.010265766945774468,10.034579638113499
4763,0,1.260389,7.297491,5.13272,1.01,2025-06-27 13:05:30.197811,621,0.64,-0.55,10.02,-0.0,0.02,0.01,inference,-0.006542926451528985,-0.01345762639053616,10.05546001346559
4764,0,1.260389,7.297491,5.13272,1.01,2025-06-27 13:05:30.217554,622,0.66,-0.55,10.0,-0.0,0.02,0.01,inference,0.011877149027661793,-0.008680170994231906,10.036826370320576
4765,0,1.260389,7.297491,5.13272,1.01,2025-06-27 13:05:30.238239,623,0.67,-0.52,9.99,-0.0,0.02,0.01,inference,0.01827931656441284,0.01676696925446841,10.02590568154957
4766,0,1.260389,7.297491,5.13272,1.01,2025-06-27 13:05:30.258377,624,0.65,-0.54,10.0,-0.0,0.02,0.01,inference,0.0028291795232875394,0.002641022030333229,10.035640737927295
4767,0,1.260389,7.297491,5.13272,1.01,2025-06-27 13:05:30.278832,625,0.66,-0.53,10.0,-0.0,0.02,0.01,inference,0.009784866261360325,0.008522053277601305,10.035752668883397
4768,0,1.260389,7.297491,5.13272,1.01,2025-06-27 13:05:30.298953,626,0.67,-0.53,9.98,-0.0,0.02,0.01,inference,0.01698329960026901,0.005924828857715725,10.016480243275963
4769,0,1.260389,7.297491,5.13272,1.01,2025-06-27 13:05:30.321597,627,0.66,-0.55,10.0,-0.0,0.02,0.01,inference,0.005880596200496968,-0.007518496151084353,10.036832612473118
4770,0,0.339533,7.297494,5.13274,1.01,2025-06-27 13:05:30.344758,628,0.66,-0.54,10.02,-0.0,0.02,0.01,inference,0.0010154144897384088,-0.0007267725241433265,10.056221877063726
4771,0,0.339533,7.297494,5.13274,1.01,2025-06-27 13:05:30.365780,629,0.65,-0.54,10.02,0.01,0.02,0.01,inference,-0.00027686650524161305,-0.0011736690998638832,10.055570523140185
4772,0,0.339533,7.297494,5.13274,1.01,2025-06-27 13:05:30.387546,630,0.65,-0.53,9.99,-0.0,0.02,0.01,inference,0.0021758563338574177,0.0009579927099815921,10.025143108599458
4773,0,0.339533,7.297494,5.13274,1.01,2025-06-27 13:05:30.420919,631,0.65,-0.55,10.0,0.01,0.02,0.01,inference,0.0038028136089687248,-0.012763415732382377,10.0361756976364
4774,0,0.339533,7.297494,5.13274,1.01,2025-06-27 13:05:30.449050,632,0.66,-0.53,10.01,-0.0,0.02,0.01,inference,0.008568821165665486,0.004682188836830581,10.045720713438708
4775,0,0.339533,7.297494,5.13274,1.41,2025-06-27 13:05:30.481344,633,0.66,-0.54,10.0,0.01,0.02,0.01,inference,0.006231964375211785,-0.003247625333252402,10.03629167648837
4776,0,0.339533,7.297494,5.13274,1.41,2025-06-27 13:05:30.502616,634,0.65,-0.52,10.01,-0.0,0.02,0.01,inference,-0.0013895566126025383,0.01049869656451563,10.044545178677973
4777,0,0.339533,7.297494,5.13274,1.41,2025-06-27 13:05:30.524077,635,0.65,-0.54,9.99,-0.0,0.02,0.01,inference,0.002451811364231782,-0.003669463474405832,10.025676063171943
4778,0,0.339533,7.297494,5.13274,1.41,2025-06-27 13:05:30.547199,636,0.66,-0.53,9.98,-0.0,0.02,0.01,inference,0.008689897467166974,0.0035770644725725553,10.015828058143361
4779,0,0.339533,7.297494,5.13274,1.41,2025-06-27 13:05:30.574662,637,0.67,-0.52,10.01,-0.0,0.02,0.01,inference,0.013348333360143405,0.011183695452449682,10.045849727472163
4780,0,0.339533,7.297494,5.13274,1.41,2025-06-27 13:05:30.600177,638,0.68,-0.55,10.0,-0.0,0.02,0.01,inference,0.022393462856830748,-0.014558146142475858,10.038136609610481
4781,0,0.339533,7.297494,5.13274,1.41,2025-06-27 13:05:30.622370,639,0.66,-0.54,10.02,-0.0,0.02,0.01,inference,0.0018562955551810756,0.0019656260299460437,10.056221591158437
4782,0,0.339533,7.297494,5.13274,1.41,2025-06-27 13:05:30.644083,640,0.66,-0.53,10.0,0.01,0.02,0.01,inference,0.0032057811041402706,0.003686158812021889,10.035759868350812
4783,0,0.339533,7.297494,5.13274,1.41,2025-06-27 13:05:30.669928,641,0.67,-0.53,9.99,-0.0,0.02,0.01,inference,0.009525652427857856,0.0022327408344219313,10.026455219907694
4784,0,0.339533,7.297494,5.13274,1.41,2025-06-27 13:05:30.699490,642,0.66,-0.54,9.99,-0.0,0.02,0.01,inference,0.0020766207782357826,-0.0015486275021953655,10.026330001022261
4785,0,0.339533,7.297494,5.13274,1.41,2025-06-27 13:05:30.729675,643,0.67,-0.54,9.99,0.01,0.02,0.01,inference,0.0075663343831045005,-0.001242860159118453,10.0269906355737
4786,0,0.339533,7.297494,5.13274,1.41,2025-06-27 13:05:30.757345,644,0.66,-0.54,9.98,-0.0,0.02,0.01,inference,0.004228101508590543,0.003188428832988588,10.016365206854193
4787,0,0.339533,7.297494,5.13274,1.41,2025-06-27 13:05:30.782927,645,0.67,-0.55,10.02,-0.0,0.02,0.01,inference,0.007822720306228437,-0.0018134222789455423,10.057421912028284
4788,0,0.339533,7.297494,5.13274,1.41,2025-06-27 13:05:30.806756,646,0.65,-0.54,10.0,0.01,0.02,0.01,inference,-0.0033345832838455047,0.0020451955359769847,10.035640721833836
4789,0,0.339533,7.297494,5.13274,1.41,2025-06-27 13:05:30.828280,647,0.67,-0.54,10.0,0.01,0.02,0.01,inference,0.012208941868909196,0.0011705550546334265,10.036949216347532
4790,0,0.339533,7.297494,5.13274,1.41,2025-06-27 13:05:30.852702,648,0.67,-0.55,10.0,-0.0,0.02,0.01,inference,0.009397455454948966,-0.004870828540355809,10.037494107737267
4791,0,0.339533,7.297494,5.13274,1.41,2025-06-27 13:05:30.875196,649,0.67,-0.54,10.01,-0.0,0.02,0.01,inference,0.004727265767304978,0.002026631224275821,10.046918609490389
4792,0,0.339533,7.297494,5.13274,1.41,2025-06-27 13:05:30.896199,650,0.65,-0.56,10.01,0.01,0.02,0.01,inference,-0.008001366406399701,-0.014603089003613179,10.046687151888785
4793,0,0.339533,7.297494,5.13274,1.41,2025-06-27 13:05:30.918252,651,0.7,-0.52,10.02,-0.0,0.02,0.01,inference,0.03553033517719184,0.02506459914454895,10.057778550015502
4794,0,0.339533,7.297494,5.13274,1.41,2025-06-27 13:05:30.939460,652,0.63,-0.57,10.01,0.01,0.02,0.01,inference,-0.02372275886126607,-0.025778291543083864,10.045928165699632
4795,0,0.339533,7.297494,5.13274,1.41,2025-06-27 13:05:30.960487,653,0.69,-0.5,10.0,-0.0,0.02,0.01,inference,0.030945189574284826,0.041922064166533435,10.036104071589644
4796,0,0.339533,7.297494,5.13274,1.41,2025-06-27 13:05:30.981694,654,0.62,-0.57,10.02,0.01,0.02,0.01,inference,-0.028944876602392533,-0.02764534179077638,10.055252255870847
4797,0,0.339533,7.297494,5.13274,1.41,2025-06-27 13:05:31.004081,655,0.68,-0.52,10.02,0.01,0.02,0.01,inference,0.025160648857085133,0.020562575862272003,10.056447887908682
4798,0,0.339533,7.297494,5.13274,1.41,2025-06-27 13:05:31.026105,656,0.66,-0.52,9.99,-0.0,0.02,0.01,inference,0.006830830893793549,0.011903122165633828,10.025263670120204
4799,0,0.339533,7.297494,5.13274,1.41,2025-06-27 13:05:31.048580,657,0.65,-0.54,10.0,-0.0,0.02,0.01,inference,0.001446772607876401,-0.001677320644088598,10.035641239773597
4800,0,0.339533,7.297494,5.13274,1.41,2025-06-27 13:05:31.070473,658,0.66,-0.53,10.0,0.01,0.02,0.01,inference,0.007822380107688653,0.0038869842184819925,10.03575725601826
4801,0,0.339533,7.297494,5.13274,1.41,2025-06-27 13:05:31.092162,659,0.65,-0.53,10.0,-0.0,0.02,0.01,inference,0.0035265776805641913,-0.002072297643357812,10.035107536485713
4802,0,0.339533,7.297494,5.13274,1.41,2025-06-27 13:05:31.114512,660,0.66,-0.54,9.97,0.01,0.02,0.01,inference,0.013064829846455295,-0.00957893143507016,10.006389836214343
4803,0,0.339533,7.297494,5.13274,1.41,2025-06-27 13:05:31.134997,661,0.66,-0.54,9.97,0.01,0.02,0.01,inference,0.009864193690944933,-0.00649793172683899,10.006395978301386
4804,0,0.339533,7.297494,5.13274,1.41,2025-06-27 13:05:31.157675,662,0.66,-0.53,10.0,0.01,0.02,0.01,inference,0.0038808352661521273,0.0003968568283435614,10.035760299131416
4805,0,0.339533,7.297494,5.13274,1.41,2025-06-27 13:05:31.179956,663,0.65,-0.55,10.02,-0.0,0.02,0.01,inference,-0.0021548730367684232,-0.012693989789133331,10.05610432618643
4806,0,0.339533,7.297494,5.13274,1.41,2025-06-27 13:05:31.201638,664,0.67,-0.53,10.0,0.01,0.02,0.01,inference,0.013953676199288112,0.004137740268175483,10.036413112961524
4807,0,0.339533,7.297494,5.13274,1.41,2025-06-27 13:05:31.222501,665,0.66,-0.54,9.99,-0.0,0.02,0.01,inference,0.003330939338876515,-0.0015032639454179986,10.026329669676768
4808,0,0.339533,7.297494,5.13274,1.41,2025-06-27 13:05:31.246040,666,0.67,-0.52,10.0,-0.0,0.02,0.01,inference,0.010130447549149713,0.014023405464198224,10.035885646923823
4809,0,0.339533,7.297494,5.13274,1.41,2025-06-27 13:05:31.266707,667,0.66,-0.53,9.98,-0.0,0.02,0.01,inference,-0.00016409437351816436,-0.0023424170279984224,10.015832191393558
4810,0,0.339533,7.297494,5.13274,1.41,2025-06-27 13:05:31.286321,668,0.65,-0.55,10.0,-0.0,0.02,0.01,inference,-0.005448055016382569,-0.01575414757311755,10.036170690334577
4811,0,0.339533,7.297494,5.13274,1.41,2025-06-27 13:05:31.306142,669,0.66,-0.55,9.99,-0.0,0.02,0.01,inference,0.005161282726612981,-0.009165379946585006,10.026868372376844
4812,0,0.339533,7.297494,5.13274,1.41,2025-06-27 13:05:31.325653,670,0.61,-0.56,9.98,-0.0,0.02,0.01,inference,-0.03545772049952656,-0.019520289190239182,10.014212984971257
4813,0,0.339533,7.297494,5.13274,1.41,2025-06-27 13:05:31.346554,671,0.72,-0.47,10.02,-0.0,0.02,0.01,inference,0.06381950429802385,0.07422136981580973,10.056347162818806
4814,0,0.339533,7.297494,5.13274,1.41,2025-06-27 13:05:31.366923,672,0.62,-0.57,10.0,-0.0,0.02,0.01,inference,-0.0220521533980077,-0.027569329826581224,10.035340235118262
4815,0,0.339533,7.297494,5.13274,1.41,2025-06-27 13:05:31.387927,673,0.69,-0.51,10.01,-0.0,0.02,0.01,inference,0.040418810360596025,0.03303981083008978,10.046570294915046
4816,0,0.339533,7.297494,5.13274,1.41,2025-06-27 13:05:31.408210,674,0.64,-0.55,9.99,-0.0,0.02,0.01,inference,-0.0005641353129577364,-0.00491198504497925,10.025576070937484
4817,0,0.221211,7.297496,5.132745,1.41,2025-06-27 13:05:31.429112,675,0.67,-0.52,10.05,0.01,0.02,0.01,inference,0.02149795259272791,0.023861262126296245,10.085671444093549
4818,0,0.221211,7.297496,5.132745,1.41,2025-06-27 13:05:31.447504,676,0.64,-0.52,10.01,-0.0,0.02,0.01,inference,-0.001823328181745798,0.013795548849052208,10.043898961972204
4819,0,0.221211,7.297496,5.132745,1.41,2025-06-27 13:05:31.470069,677,0.62,-0.57,10.0,0.01,0.02,0.01,inference,-0.01309330432355682,-0.03264162650398239,10.035340706204305
4820,0,0.221211,7.297496,5.132745,1.41,2025-06-27 13:05:31.492222,678,0.68,-0.51,10.02,-0.0,0.02,0.01,inference,0.038504855886676626,0.028127371875208695,10.055875209399955
4821,0,0.221211,7.297496,5.132745,1.41,2025-06-27 13:05:31.515404,679,0.65,-0.53,9.97,-0.0,0.02,0.01,inference,0.008883585271480476,0.0021724493115471977,10.00520946119454
4822,0,0.221211,7.297496,5.132745,1.41,2025-06-27 13:05:31.536084,680,0.67,-0.53,10.0,-0.0,0.02,0.01,inference,0.022329574294063903,0.003915379930148566,10.036398062049544
4823,0,0.221211,7.297496,5.132745,1.41,2025-06-27 13:05:31.556171,681,0.66,-0.54,9.99,-0.0,0.02,0.01,inference,0.009863924970371696,-0.003920240020810872,10.02632471719834
4824,0,0.221211,7.297496,5.132745,1.41,2025-06-27 13:05:31.577587,682,0.66,-0.54,9.97,-0.0,0.02,0.01,inference,0.0072385609661137496,-0.0020797993433665507,10.006400115809374
4825,0,0.221211,7.297496,5.132745,1.41,2025-06-27 13:05:31.597971,683,0.67,-0.55,10.0,-0.0,0.02,0.01,inference,0.012214246391300865,-0.006210362804764891,10.037490335914597
4826,0,0.221211,7.297496,5.132745,1.41,2025-06-27 13:05:31.617972,684,0.66,-0.56,10.0,-0.0,0.02,0.01,inference,0.003805477469703389,-0.010109198949424747,10.037384286876627
4827,0,0.221211,7.297496,5.132745,1.41,2025-06-27 13:05:31.639019,685,0.65,-0.52,9.97,-0.0,0.02,0.01,inference,-0.0029624798506380223,0.021374226899628368,10.004665629901762
4828,0,0.221211,7.297496,5.132745,1.41,2025-06-27 13:05:31.659735,686,0.66,-0.55,10.0,0.01,0.02,0.01,inference,0.004083342679774171,-0.0026637940112933522,10.036835967102085
4829,0,0.221211,7.297496,5.132745,1.41,2025-06-27 13:05:31.680055,687,0.68,-0.53,9.99,-0.0,0.02,0.01,inference,0.020270822348278483,0.014214181741710796,10.027102624926046
4830,0,0.221211,7.297496,5.132745,1.41,2025-06-27 13:05:31.700562,688,0.62,-0.55,9.99,0.01,0.02,0.01,inference,-0.02973217647329207,-0.008794277628976,10.024272475265382
4831,0,0.221211,7.297496,5.132745,1.41,2025-06-27 13:05:31.720430,689,0.7,-0.51,10.0,0.01,0.02,0.01,inference,0.04370714432425127,0.031848616634845894,10.037289243174845
4832,0,0.221211,7.297496,5.132745,1.41,2025-06-27 13:05:31.739143,690,0.67,-0.54,9.98,-0.0,0.02,0.01,inference,0.012502992391379975,-0.00041017837721291084,10.017022686753535
4833,0,0.221211,7.297496,5.132745,1.41,2025-06-27 13:05:31.759501,691,0.68,-0.55,9.98,0.01,0.02,0.01,inference,0.01911399897460142,-0.007972531627097157,10.018226943615455
4834,0,0.221211,7.297496,5.132745,1.41,2025-06-27 13:05:31.779581,692,0.68,-0.52,10.0,-0.0,0.02,0.01,inference,0.014161861139173837,0.01767099727329291,10.036547572623988
4835,0,0.221211,7.297496,5.132745,1.41,2025-06-27 13:05:31.799814,693,0.64,-0.55,9.98,-0.0,0.02,0.01,inference,-0.014984452480187316,-0.011812948095262732,10.015594636387856
4836,0,0.221211,7.297496,5.132745,1.41,2025-06-27 13:05:31.819908,694,0.66,-0.55,10.02,0.01,0.02,0.01,inference,0.0026602609513545206,-0.00292010709897661,10.056763117225453
4837,0,0.221211,7.297496,5.132745,1.41,2025-06-27 13:05:31.841782,695,0.66,-0.56,10.03,-0.0,0.02,0.01,inference,0.0032904929156614138,-0.005700777958207004,10.067276527134188
4838,0,0.221211,7.297496,5.132745,1.41,2025-06-27 13:05:31.863490,696,0.67,-0.56,9.98,-0.0,0.02,0.01,inference,0.012730326409803538,-0.004664606088881196,10.018119393391137
4839,0,0.221211,7.297496,5.132745,1.41,2025-06-27 13:05:31.890109,697,0.67,-0.54,10.01,-0.0,0.02,0.01,inference,0.00823113505874018,0.011209581948124825,10.046910300868031
